"Time (s)","Linear Acceleration x (m/s^2)","Linear Acceleration y (m/s^2)","Linear Acceleration z (m/s^2)","Absolute acceleration (m/s^2)"
1.557425000E-2,-4.959315956E-1,-2.829789251E-1,-1.656672900E0,1.752309994E0
2.553225000E-2,-5.062589478E-1,-4.605588645E-1,-1.198444151E0,1.380101798E0
3.549125000E-2,-3.792679489E-2,-4.817263699E-1,-3.977416420E-1,6.258571330E-1
4.545025000E-2,5.172587299E-1,-3.805724627E-1,1.578374004E-1,6.612901315E-1
5.540925000E-2,7.918600568E-1,-1.907396829E-1,1.744756526E-1,8.329860320E-1
6.536825000E-2,7.418964761E-1,-2.553905922E-1,-5.444167078E-2,7.865104141E-1
7.532625000E-2,4.943940702E-1,-2.745910943E-1,-1.673274314E-1,5.897662546E-1
8.528525000E-2,5.052631670E-1,-1.400221038E-1,-3.568111324E-1,6.342012628E-1
9.524425000E-2,3.374340445E-1,6.632204354E-1,-6.957683766E-1,1.018732896E0
1.052032500E-1,6.311665839E-1,4.976629561E-1,-9.884846699E-1,1.274025752E0
1.151622500E-1,6.809819376E-1,6.044266820E-3,-7.981285644E-1,1.049181651E0
1.251202500E-1,5.097294165E-1,-1.568568224E-1,-2.322788876E-1,5.817057868E-1
1.350792500E-1,2.527714781E-1,-1.571263790E-1,5.056023055E-1,5.866990800E-1
1.450382500E-1,-2.507300690E-2,-9.814025223E-2,1.248529061E0,1.252631223E0
1.549972500E-1,-1.891347684E-1,-2.665160894E-3,1.715207621E0,1.725606052E0
1.649552500E-1,-1.348046333E-1,7.914849579E-2,1.824879168E0,1.831562380E0
1.749142500E-1,3.798658267E-2,2.042631233E-1,1.585260270E0,1.598817228E0
1.848732500E-1,8.233464360E-2,2.169638604E-1,1.151117957E0,1.174276313E0
1.948322500E-1,5.949717343E-2,1.333171016E-1,6.070994443E-1,6.244061967E-1
2.047912500E-1,3.895341977E-2,7.927011788E-2,-1.893024373E-1,2.088935932E-1
2.147492500E-1,-1.183051063E-1,-1.525889397E-2,-8.756538731E-1,8.837412729E-1
2.247082500E-1,-4.533046626E-1,-1.923090756E-1,-1.145171923E0,1.246549891E0
2.346670417E-1,-6.604887624E-1,-2.465303063E-1,-1.057059061E0,1.270589019E0
2.446260417E-1,-5.467167100E-1,-1.604815114E-1,-6.135296273E-1,8.373004718E-1
2.545840417E-1,-2.427155828E-1,8.808830380E-3,-7.935607195E-2,2.555109309E-1
2.645430417E-1,3.049527615E-2,1.633121485E-1,3.827388561E-1,4.172407598E-1
2.745020417E-1,3.046200550E-1,1.935293895E-1,6.595232409E-1,7.518097551E-1
2.844610417E-1,5.589439689E-1,7.983262002E-2,7.603748471E-1,9.470805222E-1
2.944200417E-1,6.767184404E-1,-1.432795876E-1,7.836689848E-1,1.045281764E0
3.043780417E-1,8.409203888E-1,-3.738861716E-1,8.549675936E-1,1.256147904E0
3.143370417E-1,9.819967456E-1,-5.651328081E-1,9.301469994E-1,1.465901136E0
3.242960417E-1,1.011030364E0,-5.430893898E-1,6.537128627E-1,1.320783476E0
3.342550417E-1,8.825525643E-1,-4.713522398E-1,6.064936727E-1,1.170002794E0
3.442130417E-1,8.268927723E-1,-3.259553754E-1,7.243793875E-1,1.146614173E0
3.541720417E-1,4.578945807E-1,-2.472629625E-1,5.891619408E-1,7.860777392E-1
3.641310417E-1,5.431917161E-2,-2.587369537E-1,3.194450855E-1,4.146571431E-1
3.740900417E-1,-1.124071661E-1,-1.063491583E-1,-8.955186188E-2,1.787877245E-1
3.840490417E-1,-2.216856332E-1,2.338476956E-2,-5.999629176E-1,6.400366160E-1
3.940070417E-1,-5.651597053E-2,1.896368980E-1,-8.879651856E-1,9.097463267E-1
4.039660417E-1,5.692249820E-2,3.890339684E-1,-8.059439528E-1,8.967347738E-1
4.139250417E-1,1.061693564E-2,5.143117332E-1,-2.375694484E-1,5.666290860E-1
4.238840417E-1,8.580204248E-2,5.440629512E-1,3.887281591E-1,6.741484013E-1
4.338420417E-1,1.691925471E-1,5.873750317E-1,7.431898803E-1,9.622716581E-1
4.438010417E-1,-1.956054434E-2,2.728106171E-1,9.339775103E-1,9.732020538E-1
4.537600417E-1,-1.508305357E-1,-2.218807840E-1,1.035243684E0,1.069443976E0
4.637190417E-1,-6.572182685E-2,-6.386042422E-1,7.783018255E-1,1.008904588E0
4.736780417E-1,1.806794022E-1,-9.468817306E-1,3.796486026E-1,1.036032393E0
4.836360417E-1,1.140238335E0,-1.036430084E0,-7.335448980E-2,1.542631408E0
4.935950417E-1,1.932433145E0,-6.431878746E-1,-5.257611662E-1,2.103428940E0
5.035540417E-1,4.532875594E-1,1.022112592E0,-7.332677400E-1,1.337110818E0
5.135130417E-1,1.694368145E-1,1.635489607E0,-1.230626056E0,2.053771063E0
5.234710417E-1,7.247734898E-1,1.217294989E0,-1.293025787E0,1.918077003E0
5.334300417E-1,6.310645500E-1,1.102265055E0,-9.831490856E-1,1.606179579E0
5.433890417E-1,5.651775393E-1,1.039361878E0,-9.418238890E-1,1.512194102E0
5.533480417E-1,7.328791925E-1,1.024028140E0,-9.951732999E-1,1.605028174E0
5.633070417E-1,1.002934602E0,1.262573488E0,-1.005246298E0,1.900128877E0
5.732650417E-1,8.982117002E-1,1.293944385E0,-9.972057921E-1,1.864268146E0
5.832240417E-1,6.559242797E-1,1.208487913E0,-1.196022234E0,1.822401954E0
5.931830417E-1,1.295747082E0,1.084705866E0,-1.382502220E0,2.183313927E0
6.031420417E-1,1.493623145E0,1.182422195E0,-1.308205744E0,2.310938038E0
6.131000417E-1,1.193527958E0,1.336742203E0,-9.842191261E-1,2.044523414E0
6.230590417E-1,1.038265817E0,1.014797725E0,-6.496765298E-1,1.590562770E0
6.330180417E-1,5.351082328E-1,4.465857732E-1,-4.384809476E-1,8.234350096E-1
6.429770417E-1,-3.715765214E-1,3.788703382E-3,-2.469179767E-1,4.461523874E-1
6.529360417E-1,-4.675736229E-1,-5.206740886E-1,-2.007179564E-1,7.280208084E-1
6.628940417E-1,-7.987533394E-1,-7.340439579E-1,-3.957342929E-1,1.154743720E0
6.728530417E-1,-9.078249612E-1,-7.490306640E-1,-4.326922041E-1,1.253959983E0
6.828120417E-1,-4.554293945E-1,-6.476916924E-1,-1.675279909E-1,8.093121089E-1
6.927710417E-1,5.636584327E-2,-1.846734890E-1,1.388228399E-1,2.378091392E-1
7.027290417E-1,5.066078804E-2,3.888079736E-1,7.224234939E-1,8.219695008E-1
7.126880417E-1,7.667724319E-2,7.639963201E-1,1.565614795E0,1.743765885E0
7.226470417E-1,2.639087429E-1,6.410875547E-1,1.942753773E0,2.062748967E0
7.326060417E-1,2.980508544E-2,3.826800916E-1,1.740301532E0,1.782128452E0
7.425650417E-1,-1.562229842E-2,1.630759209E-2,1.289696383E0,1.289894086E0
7.525230417E-1,-4.631111741E-2,-7.924351305E-2,8.178944921E-1,8.230283435E-1
7.624820417E-1,-8.676142439E-2,-4.245663285E-2,4.181776607E-1,4.291883810E-1
7.724410417E-1,-4.669915326E-2,8.055504352E-2,3.591242909E-2,9.979793843E-2
7.824000417E-1,-1.872003633E-1,1.686114800E-1,-3.059228146E-1,3.963112107E-1
7.923580417E-1,5.087977358E-1,4.008295566E-2,-5.360183519E-1,7.401334021E-1
8.023170417E-1,7.363014948E-2,2.673902482E-1,-1.519007224E-1,3.162163392E-1
8.122760417E-1,9.855723180E-2,4.464702907E-1,1.647289288E-1,4.859885476E-1
8.222350417E-1,2.290508591E-1,3.059646222E-1,5.459597880E-1,6.664463491E-1
8.321940417E-1,-2.281329194E-1,4.632500455E-1,5.204822999E-1,7.331760076E-1
8.421520417E-1,-1.596347614E-1,3.475716546E-1,1.372610486E-1,4.063617940E-1
8.521110417E-1,2.197496932E-2,2.825728360E-1,-1.609685844E-1,3.259466092E-1
8.620700417E-1,-1.232272924E-1,3.366180655E-1,-5.781644976E-1,6.802726468E-1
8.720290417E-1,-3.416729469E-1,3.373700175E-1,-7.559198534E-1,8.955298745E-1
8.819870417E-1,-5.090336709E-1,3.445743719E-1,-7.970784044E-1,1.006568805E0
8.919460417E-1,-1.048292477E-1,1.655522168E-1,-1.059156457E0,1.077130033E0
9.019050417E-1,-1.886348315E-3,8.187797606E-2,-7.765043914E-1,7.808115209E-1
9.118640417E-1,-1.586120103E-1,2.078685164E-1,-4.991241753E-1,5.634643133E-1
9.218220417E-1,-8.237550102E-2,1.537709543E-1,-3.776418382E-1,4.159862828E-1
9.317810417E-1,2.047442760E-2,6.330663443E-2,-3.078939110E-1,3.150009406E-1
9.417400417E-1,-8.024349656E-2,7.656227231E-2,-2.701062799E-1,2.919900729E-1
9.516990417E-1,-7.609179072E-2,1.019394806E-1,-2.709482789E-1,2.993235510E-1
9.616580417E-1,-1.494618122E-1,1.783795461E-1,-3.812811452E-1,4.466916246E-1
9.716160417E-1,-2.094301616E-1,2.450243559E-1,-6.801615733E-1,7.526736965E-1
9.815750417E-1,-3.657168073E-1,3.810411170E-1,-7.803764176E-1,9.422995645E-1
9.915340417E-1,-5.128543147E-1,2.270631713E-1,-1.145430370E0,1.275377577E0
1.001493042E0,-3.622862094E-1,2.451918787E-1,-1.349061409E0,1.418216147E0
1.011451042E0,-9.627583098E-2,7.146583915E-2,-1.228565497E0,1.234402521E0
1.021410042E0,1.751214410E-1,9.597649008E-2,-1.139506556E0,1.156872593E0
1.031369042E0,-3.074041336E-1,2.758093616E-1,-8.034349126E-1,9.033691184E-1
1.041328042E0,-4.136694940E-1,2.393689290E-1,-8.739575958E-1,9.961033148E-1
1.051287042E0,-4.770518498E-1,2.606621495E-1,-9.348382205E-1,1.081409137E0
1.061245042E0,-4.562721245E-1,3.384499982E-1,-1.004965047E0,1.154420807E0
1.071204042E0,-3.868628242E-1,4.448868647E-1,-1.044196941E0,1.199139032E0
1.081163042E0,-2.838423396E-1,5.440673366E-1,-1.064996071E0,1.229142942E0
1.091122042E0,-2.549307087E-1,5.576656213E-1,-1.066022843E0,1.229790760E0
1.101080042E0,-2.720976588E-1,5.615823787E-1,-1.126963109E0,1.288199423E0
1.111039042E0,-2.467087561E-1,6.014732534E-1,-1.159341481E0,1.329175667E0
1.120998042E0,-2.033539178E-1,6.723453078E-1,-1.165689218E0,1.360967443E0
1.130957042E0,-1.481583216E-1,7.470809099E-1,-1.124730642E0,1.358344504E0
1.140915042E0,-1.008918057E-1,7.974643207E-1,-9.861142087E-1,1.272222359E0
1.150874042E0,-1.002634859E-1,8.595026940E-1,-8.317904001E-1,1.200280349E0
1.160833042E0,-1.064294113E-1,8.931806096E-1,-6.804849243E-1,1.127900064E0
1.170792042E0,-8.307888452E-2,9.421837851E-1,-5.870756543E-1,1.113225139E0
1.180751042E0,8.016605750E-3,1.106085918E0,-5.552814192E-1,1.237670302E0
1.190709042E0,2.256018790E-1,1.317283839E0,-5.024962646E-1,1.427807906E0
1.200668042E0,4.022031041E-1,1.463990187E0,-4.599741429E-1,1.586382935E0
1.210627042E0,4.254505737E-1,1.556361576E0,-4.410373503E-1,1.672657613E0
1.220586042E0,3.442110405E-1,1.611122505E0,-3.920587331E-1,1.693489598E0
1.230544042E0,2.825551116E-1,1.565846345E0,-3.085078686E-1,1.620768112E0
1.240504542E0,1.198993497E-1,1.534593562E0,-2.655863822E-1,1.562014526E0
1.250463542E0,-1.092969590E-1,1.520807582E0,-3.014613891E-1,1.554245957E0
1.260422542E0,-2.614769224E-1,1.473371460E0,-3.614696091E-1,1.539432986E0
1.270380542E0,-2.948185501E-1,1.436110078E0,-4.689414328E-1,1.539232342E0
1.280339542E0,-3.028110361E-1,1.471296283E0,-5.596861267E-1,1.603014609E0
1.290298542E0,-6.018549669E-1,1.610320852E0,-5.563935596E-1,1.806913512E0
1.300257542E0,-3.496823533E-1,1.427000408E0,-5.138983351E-1,1.556502301E0
1.310215542E0,4.682930863E-1,1.190296348E0,-3.331989062E-1,1.321788683E0
1.320174542E0,1.180309084E0,8.991143641E-1,9.456701875E-2,1.486768003E0
1.330133542E0,8.709005984E-1,1.015641186E0,9.091999340E-1,1.617602977E0
1.340092542E0,1.959051680E-1,1.003812269E0,1.183889846E0,1.564484923E0
1.350051542E0,-2.297250431E-2,5.647960085E-1,1.409177803E0,1.518322873E0
1.360009542E0,-1.489524466E-1,2.291807404E-1,1.843066932E0,1.863224720E0
1.369968542E0,-3.711328639E-1,-1.828336626E-2,2.035136856E0,2.068781262E0
1.379927542E0,-7.268344872E-1,-2.688698861E-1,1.949337738E0,2.097736161E0
1.389886542E0,-1.010380154E0,-4.634207842E-1,1.835920465E0,2.146213138E0
1.399844542E0,-1.161178384E0,-6.813506046E-1,1.653193806E0,2.132046821E0
1.409803542E0,-1.273418758E0,-8.705919385E-1,1.543022908E0,2.181844484E0
1.419762542E0,-1.362502404E0,-9.883732805E-1,1.588821225E0,2.314659246E0
1.429721542E0,-1.414257425E0,-1.045431873E0,1.760373269E0,2.488366113E0
1.439679542E0,-1.322807996E0,-1.049280510E0,2.094777287E0,2.690520853E0
1.449638542E0,-1.095456264E0,-9.627613065E-1,2.452605835E0,2.853455649E0
1.459597542E0,-8.789053635E-1,-8.682372648E-1,2.687394932E0,2.957769786E0
1.469556542E0,-6.891009428E-1,-8.515215370E-1,2.645190314E0,2.863036995E0
1.479514542E0,-5.259210145E-1,-8.972850627E-1,2.307576175E0,2.531130420E0
1.489473542E0,-3.825101569E-1,-8.818811578E-1,1.842564656E0,2.078237934E0
1.499432542E0,-2.295494074E-1,-8.012775823E-1,1.268431814E0,1.517780604E0
1.509391542E0,-1.478712964E-1,-7.252503303E-1,6.112936521E-1,9.599655676E-1
1.519349542E0,-1.808858089E-1,-6.752235997E-1,-8.317021072E-2,7.039629744E-1
1.529308542E0,-2.238497974E-1,-6.439331022E-1,-7.293904513E-1,9.983831941E-1
1.539267542E0,-3.272871884E-1,-5.337250739E-1,-1.207848228E0,1.360469294E0
1.549226542E0,-7.014061157E-1,-2.010562178E-1,-1.367408803E0,1.549903537E0
1.559185542E0,-4.287319580E-1,-3.250449640E-1,-1.818027400E0,1.895966495E0
1.569143542E0,-7.402337473E-2,-4.419050771E-1,-1.969486658E0,2.019811192E0
1.579102542E0,2.238643058E-3,-4.437662458E-1,-1.978745139E0,2.027896895E0
1.589061542E0,-2.105280859E-1,-6.955263019E-3,-1.700408903E0,1.713406224E0
1.599020542E0,-3.065343237E-1,1.310001424E-1,-1.499934191E0,1.536530802E0
1.608978542E0,-1.764503669E-1,1.322897458E-1,-1.286882703E0,1.305642524E0
1.618937542E0,-4.504541449E-2,5.060706675E-2,-8.876722401E-1,8.902539921E-1
1.628896542E0,-1.875143588E-2,1.885083854E-2,-5.076909310E-1,5.083867149E-1
1.638855542E0,1.016377643E-2,-4.135297090E-2,-1.725115728E-1,1.776896545E-1
1.648813542E0,-3.006627325E-2,-1.172790661E-1,3.026928127E-2,1.247981952E-1
1.658772542E0,-2.021720493E-1,-2.193220425E-1,1.369575781E-1,3.282271683E-1
1.668731542E0,-3.365452312E-1,-2.687681445E-1,9.058915794E-2,4.401197606E-1
1.678690542E0,-4.037674901E-1,-2.871234316E-1,-2.060207963E-2,4.958754851E-1
1.688648542E0,-4.079516480E-1,-2.090622255E-1,-1.563668257E-1,4.843368099E-1
1.698607542E0,-3.333313091E-1,-1.261758971E-1,-2.700314355E-1,4.471544417E-1
1.708566542E0,-2.654488264E-1,-6.475966752E-2,-2.741934836E-1,3.870903776E-1
1.718525542E0,-1.438942031E-1,4.371115297E-2,-1.431427628E-1,2.076199824E-1
1.728484542E0,-4.552040940E-1,1.994456023E-1,4.976506770E-2,4.994655919E-1
1.738442542E0,-2.657820446E-1,4.243084663E-1,-2.062722266E-1,5.415034638E-1
1.748401542E0,-4.033891752E-2,6.114231679E-1,-2.606922626E-2,6.133067121E-1
1.758360542E0,3.117600169E-1,5.340183118E-1,-5.385437644E-1,8.199995437E-1
1.768319542E0,8.452322719E-1,3.554019535E-1,-7.470794481E-1,1.182732364E0
1.778277542E0,9.818379937E-1,5.030956042E-1,-1.060399575E0,1.530215113E0
1.788236542E0,1.203126455E0,5.474286085E-1,-1.177432766E0,1.770180574E0
1.798195542E0,1.127404354E0,6.801291212E-1,-1.013852815E0,1.661780289E0
1.808154542E0,7.984973775E-1,7.027914673E-1,-8.437210590E-1,1.357710990E0
1.818112542E0,6.581232713E-1,5.924635711E-1,-6.087746716E-1,1.074591050E0
1.828071542E0,3.360986135E-1,5.853922409E-1,-2.234952003E-1,7.110530629E-1
1.838030542E0,2.962205297E-1,4.982432923E-1,-3.615625799E-2,5.807755638E-1
1.847989542E0,3.651673883E-2,2.523710901E-1,7.856318951E-2,2.668273113E-1
1.857947542E0,-3.415715343E-1,6.187523603E-2,-7.710138559E-3,3.472162210E-1
1.867906542E0,-5.355085478E-1,6.321863383E-2,5.575495541E-2,5.421020342E-1
1.877865542E0,-5.713694483E-1,-1.208765656E-2,8.289422214E-2,5.774778004E-1
1.887824542E0,-4.876300842E-1,-3.856004834E-2,4.006336749E-2,4.907902299E-1
1.897782542E0,-4.471198798E-1,-3.392934591E-2,5.228638709E-2,4.514435222E-1
1.907741542E0,-3.220833127E-1,5.030125737E-2,2.160136878E-1,3.910623865E-1
1.917700542E0,-1.435010875E-1,1.845887044E-1,5.660356182E-1,6.124229527E-1
1.927659542E0,1.286098737E-1,2.014178681E-1,7.268983680E-1,7.651737676E-1
1.937617542E0,3.356212980E-1,2.295169553E-1,8.468539971E-1,9.394048014E-1
1.947576542E0,4.872976335E-1,2.462066630E-1,1.030103981E0,1.165843436E0
1.957535542E0,6.294053295E-1,1.797682598E-1,1.321210536E0,1.474471084E0
1.967494542E0,6.436446883E-1,7.341559321E-2,1.707001639E0,1.825793781E0
1.977452542E0,4.857364634E-1,-1.009346366E-2,2.001027709E0,2.059163345E0
1.987411542E0,2.171591209E-1,-1.048525634E-1,2.007616936E0,2.022047948E0
1.997370542E0,-4.369532894E-2,-1.913659197E-1,1.865417329E0,1.875716399E0
2.007329542E0,-1.352724836E-1,-2.256490222E-1,1.627773036E0,1.648896960E0
2.017287542E0,-2.223111391E-3,-1.702943087E-1,1.260110641E0,1.271567506E0
2.027246542E0,3.208173905E-1,-4.900200605E-2,9.103231841E-1,9.664436322E-1
2.037205542E0,7.084229207E-1,3.212635696E-2,7.677294749E-1,1.045133333E0
2.047164542E0,8.571785720E-1,1.453892630E-1,1.004608367E0,1.328582370E0
2.057122542E0,7.527487622E-1,1.696090150E-1,1.418109425E0,1.614444876E0
2.067081542E0,5.994383858E-1,4.605939478E-2,1.734895781E0,1.836113073E0
2.077040542E0,4.154153264E-1,-2.293234125E-1,1.953724319E0,2.010521782E0
2.086999542E0,1.836819840E-1,-5.371644062E-1,1.969801823E0,2.049976559E0
2.096957542E0,1.901974998E-2,-7.502916160E-1,1.710076105E0,1.867527656E0
2.106916542E0,-3.002822980E-2,-8.957925609E-1,1.270192995E0,1.554585556E0
2.116875542E0,-7.236009769E-2,-9.163411385E-1,6.218560624E-1,1.109784676E0
2.126834542E0,-1.712528135E-1,-8.393379861E-1,-1.401390481E-1,8.680177037E-1
2.136792542E0,-2.621649570E-1,-6.438336995E-1,-7.452714890E-1,1.019157441E0
2.146751542E0,-2.140439802E-1,-5.413404876E-1,-1.168535058E0,1.305503171E0
2.156710542E0,-3.907036409E-3,-5.309491083E-1,-1.425896162E0,1.521545952E0
2.166669542E0,2.049070479E-1,-3.430789465E-1,-1.247508137E0,1.309949088E0
2.176628542E0,5.528000070E-1,-3.043934754E-1,-1.079867880E0,1.250742929E0
2.186586542E0,8.985189714E-1,-3.417577681E-1,-1.012241907E0,1.395982948E0
2.196545542E0,1.123112571E0,-3.316338989E-1,-9.268971169E-1,1.493486242E0
2.206504542E0,1.312814812E0,-2.697528157E-1,-8.386345661E-1,1.580998813E0
2.216462542E0,1.448960650E0,-2.446551043E-1,-9.475991839E-1,1.748510023E0
2.226421542E0,1.465085371E0,-3.064777154E-1,-1.213580253E0,1.926961537E0
2.236379167E0,1.352179437E0,-3.774184746E-1,-1.509597300E0,2.061484403E0
2.246338167E0,1.107520020E0,-4.228185958E-1,-1.716051375E0,2.085715340E0
2.256296167E0,8.950317650E-1,-4.568151847E-1,-1.820608946E0,2.079514104E0
2.266255167E0,7.393921137E-1,-4.563678727E-1,-1.877495338E0,2.068806679E0
2.276214167E0,6.748271585E-1,-4.555954555E-1,-1.929240273E0,2.094021715E0
2.286173167E0,6.315513307E-1,-3.874549279E-1,-1.944893854E0,2.081247344E0
2.296132167E0,5.859293076E-1,-3.126260626E-1,-1.875829466E0,1.989920700E0
2.306090167E0,4.937849365E-1,-2.880078229E-1,-1.716695153E0,1.809368486E0
2.316049167E0,3.839667714E-1,-1.961694074E-1,-1.604843180E0,1.661756466E0
2.326008167E0,2.685917048E-1,-2.894254804E-2,-1.635490776E0,1.657651729E0
2.335967167E0,1.746857138E-1,1.388017899E-1,-1.767257196E0,1.781285781E0
2.345925167E0,1.332096590E-1,2.907440275E-1,-1.927385536E0,1.953737932E0
2.355884167E0,1.450996797E-1,4.138507211E-1,-2.084901924E0,2.130526313E0
2.365843167E0,1.963293287E-1,5.524367487E-1,-2.071852693E0,2.153208106E0
2.375801167E0,2.025495967E-1,6.680458501E-1,-1.912941744E0,2.036334381E0
2.385760167E0,2.238482259E-1,7.645699319E-1,-1.634807237E0,1.818590089E0
2.395719167E0,1.825674681E-1,8.586375985E-1,-1.186976591E0,1.476313935E0
2.405678167E0,8.797676817E-2,8.532569906E-1,-6.758720559E-1,1.092057892E0
2.415637167E0,2.068408683E-2,8.153538769E-1,-1.472463387E-1,8.288010982E-1
2.425595167E0,4.270367771E-3,7.292632744E-1,4.181028163E-1,8.406266260E-1
2.435554167E0,3.171763659E-2,6.727578288E-1,9.406684792E-1,1.156921040E0
2.445513167E0,1.027018113E-1,6.499905252E-1,1.344117588E0,1.496558531E0
2.455472167E0,1.490518127E-1,5.725064394E-1,1.570989556E0,1.678686466E0
2.465430167E0,1.609384713E-1,4.581042033E-1,1.584177366E0,1.656918398E0
2.475389167E0,2.138436399E-1,3.416937411E-1,1.378471735E0,1.436199164E0
2.485348167E0,1.561376148E-1,2.716610545E-1,1.034105231E0,1.080533346E0
2.495306167E0,2.473956943E-3,3.108335987E-1,7.985571653E-1,8.569230962E-1
2.505265167E0,-1.101894633E-1,4.466977474E-1,6.187611312E-1,7.710680468E-1
2.515224167E0,-1.231559564E-1,5.311216012E-1,3.322832322E-1,6.384901653E-1
2.525183167E0,-1.143189132E-1,5.822277278E-1,3.663222134E-2,5.944744406E-1
2.535141167E0,-5.257275447E-2,5.637920415E-1,-9.923192739E-2,5.748672334E-1
2.545100167E0,-8.188236147E-2,6.256204998E-1,6.687752903E-2,6.344906105E-1
2.555059167E0,-1.708673358E-1,6.686872897E-1,4.681812948E-1,8.339856489E-1
2.565018167E0,-3.023602523E-1,5.998901197E-1,7.607935077E-1,1.014936766E0
2.574976167E0,-5.418741922E-1,4.764901882E-1,8.147521985E-1,1.088343551E0
2.584935167E0,-7.946586804E-1,3.861059752E-1,4.848938066E-1,1.007810620E0
2.594894167E0,-9.770551175E-1,3.344279909E-1,6.472984672E-2,1.034731239E0
2.604853167E0,-1.023168745E0,3.356980062E-1,-2.676270604E-1,1.109590770E0
2.614811167E0,-9.601743521E-1,4.111437526E-1,-3.276405430E-1,1.094679084E0
2.624770167E0,-8.491823584E-1,4.556966123E-1,-9.269181669E-2,9.681744952E-1
2.634729167E0,-7.689101739E-1,3.392171529E-1,4.222619408E-1,9.405297864E-1
2.644688167E0,-8.842422634E-1,8.154205352E-2,1.150887576E0,1.453642219E0
2.654646167E0,-1.169151647E0,-3.384491211E-1,1.907007989E0,2.262331287E0
2.664605167E0,-1.523831323E0,-7.202474526E-1,2.549980686E0,3.056668087E0
2.674564167E0,-1.826289224E0,-1.109574367E0,2.834500353E0,3.549771803E0
2.684523167E0,-2.074381321E0,-1.572408967E0,2.651909350E0,3.715932053E0
2.694481167E0,-2.227060016E0,-1.876403955E0,1.995037821E0,3.529994904E0
2.704440167E0,-1.821994298E0,-1.876774376E0,1.066777133E0,2.824882074E0
2.714399167E0,-1.837675361E0,-1.572409260E0,4.734718555E-1,2.464487210E0
2.724358167E0,-1.923194983E0,-1.182124864E0,-3.897292024E-1,2.290848530E0
2.734316167E0,-1.352426043E0,-9.262308267E-1,-1.072430221E0,1.958843109E0
2.744275167E0,-7.222033462E-1,-7.511061332E-1,-1.367512298E0,1.719252158E0
2.754234167E0,-5.269557524E-1,-5.502519366E-1,-1.507640821E0,1.689212954E0
2.764193167E0,-5.341139138E-1,-3.290850976E-1,-1.560553445E0,1.681933925E0
2.774151167E0,-5.048630713E-1,-2.389394510E-1,-1.459743354E0,1.562955355E0
2.784110167E0,-4.873566538E-1,-2.979013118E-1,-1.284682980E0,1.405941698E0
2.794069167E0,-4.848689559E-1,-3.533896342E-1,-1.174647737E0,1.319006992E0
2.804028167E0,-5.043122636E-1,-2.847076544E-1,-1.017556441E0,1.170816134E0
2.813986167E0,-4.334577508E-1,-1.483488312E-1,-8.706977731E-1,9.838737773E-1
2.823945167E0,-2.777097067E-1,-5.160460174E-3,-6.249369603E-1,6.838826770E-1
2.833904167E0,-5.325147003E-2,1.543571377E-1,-3.554534090E-1,3.911636115E-1
2.843863167E0,6.104975536E-2,2.314775267E-1,-2.242693716E-1,3.280330304E-1
2.853821167E0,8.707088828E-2,1.885083854E-1,-1.717555279E-1,2.694748825E-1
2.863780167E0,6.686583459E-2,1.190478489E-1,-4.071942508E-2,1.424833385E-1
2.873739167E0,-3.403064892E-2,-2.840489656E-2,1.045078701E-1,1.135201221E-1
2.883697167E0,-1.362934805E-1,-2.328530842E-1,2.042350566E-1,3.383909426E-1
2.893656167E0,-1.943506309E-1,-4.404055586E-1,3.113279808E-1,5.732838175E-1
2.903615167E0,-3.122319603E-1,-5.698152584E-1,3.675056899E-1,7.464841980E-1
2.913574167E0,-4.125188716E-1,-6.687913701E-1,3.497658223E-1,8.601103688E-1
2.923532167E0,-5.155172829E-1,-7.321044365E-1,2.947715896E-1,9.426692235E-1
2.933491167E0,-5.797602028E-1,-7.729782280E-1,1.346204460E-1,9.755715751E-1
2.943450167E0,-5.697154172E-1,-7.892150688E-1,-7.928649008E-2,9.765871333E-1
2.953409167E0,-4.769198124E-1,-7.901281115E-1,-2.740531504E-1,9.627357215E-1
2.963367167E0,-3.618568410E-1,-7.722897184E-1,-5.213582128E-1,9.995930015E-1
2.973326167E0,-2.604570584E-1,-6.811249021E-1,-8.504172903E-1,1.120258265E0
2.983285167E0,-8.017000437E-2,-5.939291757E-1,-1.110558161E0,1.261950286E0
2.993244167E0,2.273062693E-1,-5.111244160E-1,-1.183424408E0,1.308972741E0
3.003202167E0,4.831827651E-1,-4.098661360E-1,-1.138119596E0,1.302602030E0
3.013161167E0,6.265728651E-1,-3.059941506E-1,-1.055629417E0,1.265140087E0
3.023120167E0,6.367657314E-1,-2.431497386E-1,-9.535422939E-1,1.172107204E0
3.033079167E0,5.561735581E-1,-1.890080300E-1,-8.390193129E-1,1.024210169E0
3.043037167E0,4.914814259E-1,-2.185651204E-1,-7.764903581E-1,9.445961995E-1
3.052996167E0,4.247233263E-1,-2.861332056E-1,-7.214236200E-1,8.847113398E-1
3.062955167E0,3.473462445E-1,-2.660287240E-1,-6.801054400E-1,8.086804716E-1
3.072914167E0,2.898856562E-1,-2.267830896E-1,-7.429688555E-1,8.291362878E-1
3.082872167E0,2.649654078E-1,-1.569807833E-1,-7.250196576E-1,7.877202153E-1
3.092831167E0,2.453960927E-1,-1.021450102E-2,-5.961271441E-1,6.447411498E-1
3.102790167E0,2.385252488E-1,1.557353264E-1,-5.385309005E-1,6.092317433E-1
3.112749167E0,2.985656286E-1,2.645531791E-1,-6.029309642E-1,7.229492145E-1
3.122707167E0,4.448800673E-1,3.181446648E-1,-4.285108602E-1,6.948063466E-1
3.132666167E0,6.921896613E-1,2.586521691E-1,2.417765200E-2,7.393321518E-1
3.142625167E0,8.125960377E-1,1.871307814E-1,5.236643547E-1,9.846596398E-1
3.152583167E0,7.567652877E-1,1.534473109E-1,8.499693936E-1,1.148341303E0
3.162542167E0,5.330190226E-1,1.748922667E-1,1.100992700E0,1.235670470E0
3.172501167E0,2.447126263E-1,1.908747536E-1,1.247082460E0,1.285119490E0
3.182460167E0,-3.118049674E-2,8.353712350E-2,1.283343383E0,1.286437295E0
3.192418167E0,-1.354400794E-1,-2.552134216E-2,1.118284087E0,1.126745159E0
3.202377167E0,-1.592405129E-1,2.041555345E-2,8.274143440E-1,8.428456753E-1
3.212336167E0,-1.002420339E-1,1.817557284E-1,5.604778397E-1,5.976780228E-1
3.222295167E0,1.159726885E-1,2.620225042E-1,4.221935284E-1,5.102478149E-1
3.232253167E0,4.697944685E-1,2.682974437E-1,6.877021426E-1,8.749997702E-1
3.242212375E0,7.167994957E-1,1.409047410E-1,1.096669269E0,1.317702223E0
3.252171375E0,7.634398113E-1,-4.645086586E-2,1.413759096E0,1.607393172E0
3.262130375E0,6.094483804E-1,-1.971309820E-1,1.567056718E0,1.692913084E0
3.272088375E0,4.656766400E-1,-3.735894254E-1,1.537575057E0,1.649412274E0
3.282047375E0,4.680545929E-1,-5.427923512E-1,1.239705613E0,1.431980672E0
3.292006375E0,5.340336607E-1,-6.821583974E-1,7.924012166E-1,1.174066318E0
3.301964375E0,5.473267939E-1,-6.951915488E-1,3.091364443E-1,9.372423646E-1
3.311923375E0,5.756721950E-1,-6.592984155E-1,-8.469457984E-2,8.793441014E-1
3.321882375E0,6.546016395E-1,-6.106764784E-1,-4.365841109E-1,9.960094144E-1
3.331841375E0,8.097228621E-1,-5.592350140E-1,-6.271501315E-1,1.166924248E0
3.341799375E0,9.711904333E-1,-5.621168143E-1,-6.192949820E-1,1.281683442E0
3.351758375E0,1.101664107E0,-6.384840819E-1,-6.041419226E-1,1.409366237E0
3.361717375E0,1.132510435E0,-6.735448641E-1,-5.703724980E-1,1.435815920E0
3.371676375E0,1.091076334E0,-7.098335615E-1,-3.910863411E-1,1.359139352E0
3.381634375E0,1.119058989E0,-7.761430335E-1,-1.453553492E-1,1.369605493E0
3.391593375E0,1.127901148E0,-8.412365770E-1,1.567053795E-4,1.407067875E0
3.401552375E0,1.177671479E0,-9.162110379E-1,-1.612895966E-2,1.492183943E0
3.411511375E0,1.196043576E0,-9.929966739E-1,-1.785020453E-1,1.564744583E0
3.421469375E0,1.127766443E0,-1.006400831E0,-3.678366423E-1,1.555636069E0
3.431428375E0,1.072948577E0,-9.234115916E-1,-5.411831975E-1,1.515515381E0
3.441387375E0,1.038928892E0,-8.633010453E-1,-7.542317623E-1,1.547102934E0
3.451345375E0,9.357549177E-1,-7.551003662E-1,-7.870153463E-1,1.437082804E0
3.461304375E0,8.373420390E-1,-6.375403413E-1,-7.543171316E-1,1.294833469E0
3.471263375E0,7.712166081E-1,-5.101251268E-1,-6.941715020E-1,1.156233876E0
3.481222375E0,7.384825062E-1,-3.488419622E-1,-6.448081380E-1,1.040588613E0
3.491180375E0,7.305683729E-1,-1.418514052E-1,-5.912798023E-1,9.505071137E-1
3.501139375E0,7.127377273E-1,-2.833005220E-2,-5.680540770E-1,9.118569483E-1
3.511098375E0,6.588667448E-1,2.825082242E-2,-6.424049324E-1,9.206452050E-1
3.521057375E0,6.020525663E-1,7.431021720E-2,-7.977514189E-1,1.002195903E0
3.531015375E0,6.046650291E-1,1.864946043E-1,-8.893515605E-1,1.091488082E0
3.540974375E0,6.517844510E-1,3.264418638E-1,-9.545234567E-1,1.201042168E0
3.550933375E0,7.161033116E-1,5.113974810E-1,-1.078468056E0,1.391914036E0
3.560892375E0,8.760361348E-1,7.669971111E-1,-1.192768843E0,1.666859740E0
3.570850375E0,1.000957804E0,1.037102514E0,-1.214701749E0,1.884939917E0
3.580809375E0,1.072481531E0,1.282242352E0,-1.139517666E0,2.023082449E0
3.590768375E0,1.100637190E0,1.440552208E0,-1.020694057E0,2.080482936E0
3.600726375E0,1.154494139E0,1.488666899E0,-8.980528021E-1,2.086979801E0
3.610685375E0,1.160644679E0,1.527875403E0,-7.129644531E-1,2.046904402E0
3.620644375E0,1.008406426E0,1.550133999E0,-6.390445375E-1,1.956572732E0
3.630603375E0,8.636602836E-1,1.509880305E0,-7.039462924E-1,1.876482881E0
3.640561375E0,7.101471184E-1,1.486797252E0,-7.450364310E-1,1.808301491E0
3.650520375E0,5.270004836E-1,1.445862357E0,-7.298436105E-1,1.703208490E0
3.660479375E0,3.606997867E-1,1.383315276E0,-6.093284029E-1,1.554009842E0
3.670438375E0,2.449037206E-1,1.332977473E0,-4.210252547E-1,1.419179003E0
3.680396375E0,1.724670609E-1,1.294962385E0,-2.859317690E-1,1.337321743E0
3.690355375E0,1.585039099E-1,1.294976126E0,-1.145364296E-1,1.309658448E0
3.700314375E0,9.266608894E-2,1.345529983E0,2.651244521E-1,1.374528616E0
3.710272375E0,2.858853567E-2,1.417914420E0,5.652468288E-1,1.526696625E0
3.720231375E0,-7.827422742E-2,1.378591602E0,5.003164226E-1,1.468658634E0
3.730190375E0,-1.496885745E-1,1.240887627E0,3.650884509E-1,1.302113033E0
3.740149375E0,-2.053147450E-2,1.053674400E0,3.518620491E-1,1.111061738E0
3.750107375E0,1.586059073E-1,9.624128124E-1,4.440621150E-1,1.071720774E0
3.760066375E0,2.357771671E-1,9.697051674E-1,6.625240320E-1,1.197855199E0
3.770025375E0,1.326864794E-1,9.572877279E-1,9.765949416E-1,1.373951664E0
3.779984375E0,-1.071693582E-1,8.822103560E-1,1.477256350E0,1.723968302E0
3.789942375E0,-3.635955837E-1,6.686764723E-1,1.973591988E0,2.115276651E0
3.799901375E0,-5.896796752E-1,3.887895548E-1,2.287008594E0,2.393593062E0
3.809860375E0,-6.979928036E-1,1.631110042E-1,2.363134080E0,2.469453752E0
3.819818375E0,-6.957670610E-1,-2.008547813E-2,2.229380191E0,2.335515203E0
3.829777375E0,-6.425701893E-1,-1.681472111E-1,2.097772815E0,2.200413760E0
3.839736375E0,-6.311094274E-1,-2.990789410E-1,2.098329470E0,2.211500370E0
3.849695375E0,-6.873665124E-1,-4.470564741E-1,2.233173280E0,2.378948320E0
3.859653375E0,-8.233529411E-1,-5.921381736E-1,2.390204934E0,2.596462460E0
3.869612375E0,-9.950172523E-1,-7.581017420E-1,2.373045695E0,2.682559124E0
3.879571375E0,-1.149835224E0,-9.383693540E-1,2.137528034E0,2.602245988E0
3.889530375E0,-1.265156350E0,-1.070983328E0,1.612605944E0,2.312601091E0
3.899488375E0,-1.300691341E0,-1.078901627E0,8.951783109E-1,1.912373105E0
3.909447375E0,-1.196026181E0,-1.009710647E0,9.806073010E-2,1.568314421E0
3.919406375E0,-9.298571236E-1,-9.225348017E-1,-5.756338227E-1,1.430754706E0
3.929364375E0,-5.838492338E-1,-7.900558984E-1,-1.009591364E0,1.408667091E0
3.939323375E0,-2.948826685E-1,-6.041600490E-1,-1.291560475E0,1.456054125E0
3.949282375E0,-7.382232187E-2,-4.181925711E-1,-1.380282032E0,1.444130621E0
3.959241375E0,5.780117026E-2,-2.850283742E-1,-1.259186781E0,1.292336450E0
3.969199375E0,2.515817525E-2,-2.096095249E-1,-9.093771046E-1,9.335608203E-1
3.979158375E0,-1.018809902E-1,-2.483549300E-1,-5.405669010E-1,6.035499000E-1
3.989117375E0,-2.413681285E-1,-3.954451481E-1,-3.330509716E-1,5.705772413E-1
3.999075375E0,-4.215658298E-1,-5.174680603E-1,-2.398399222E-1,7.092348909E-1
4.009034375E0,-5.443395611E-1,-6.004482365E-1,-2.931671137E-1,8.618530031E-1
4.018993375E0,-5.649288499E-1,-6.825560081E-1,-4.460489988E-1,9.919611983E-1
4.028952375E0,-5.901376218E-1,-7.009560263E-1,-6.516996664E-1,1.124417280E0
4.038910375E0,-5.302635223E-1,-6.518142718E-1,-8.038366163E-1,1.162839006E0
4.048869375E0,-4.685973973E-1,-5.724231166E-1,-8.680706191E-1,1.140525469E0
4.058828375E0,-5.629869530E-1,-4.617160285E-1,-7.955628061E-1,1.078450824E0
4.068787375E0,-5.957753975E-1,-3.757040709E-1,-6.527854943E-1,9.603284724E-1
4.078745375E0,-5.310621788E-1,-4.118767011E-1,-6.236885798E-1,9.168734369E-1
4.088704375E0,-4.415046159E-1,-4.790021521E-1,-6.743874478E-1,9.376394922E-1
4.098663375E0,-3.595610780E-1,-4.862129384E-1,-7.977040565E-1,1.001008967E0
4.108621375E0,-2.137432140E-1,-4.215784013E-1,-8.091148978E-1,9.370599916E-1
4.118580375E0,-8.397270452E-2,-3.138300043E-1,-7.527875000E-1,8.198961562E-1
4.128539375E0,3.841913044E-3,-1.975651377E-1,-6.418593872E-1,6.715878326E-1
4.138498375E0,1.282300240E-1,-1.116847426E-1,-4.503671676E-1,4.814010868E-1
4.148456375E0,3.047871391E-1,-7.510748506E-2,-1.939077044E-1,3.689668445E-1
4.158415375E0,5.110739838E-1,-5.812950969E-2,9.202815771E-2,5.225369256E-1
4.168374375E0,6.008406577E-1,-6.848843694E-2,2.698618662E-1,6.622126462E-1
4.178332375E0,5.448140991E-1,-8.280651391E-2,3.623618942E-1,6.595342779E-1
4.188291375E0,4.649613062E-1,-8.973897278E-2,4.147359896E-1,6.294823592E-1
4.198250375E0,4.429523865E-1,-1.054802620E-1,4.829349893E-1,6.637462665E-1
4.208209375E0,4.394951106E-1,-1.714731073E-1,5.473525947E-1,7.226021324E-1
4.218167375E0,4.344499868E-1,-2.146746755E-1,5.322410506E-1,7.198003496E-1
4.228126375E0,5.050040623E-1,-2.598391539E-1,5.726985204E-1,8.065538321E-1
4.238085250E0,6.274370836E-1,-2.140332359E-1,6.961928844E-1,9.613386772E-1
4.248044250E0,7.698167847E-1,-1.475807995E-1,7.726171625E-1,1.100606766E0
4.258002250E0,8.540843716E-1,-8.960507154E-2,8.260075039E-1,1.191544199E0
4.267961250E0,9.168565705E-1,-3.671583652E-2,9.667646027E-1,1.332894527E0
4.277920250E0,9.236026494E-1,6.193136930E-2,1.154877716E0,1.480074285E0
4.287878250E0,8.715526360E-1,2.514407980E-1,1.256580677E0,1.549781104E0
4.297837250E0,8.691679953E-1,4.446579462E-1,8.199918884E-1,1.274974663E0
4.307796250E0,9.223023748E-1,4.272496158E-1,1.382164836E-2,1.016550512E0
4.317755250E0,1.095796938E0,8.507172525E-2,-5.437740988E-1,1.226253806E0
4.327713250E0,1.530528870E0,-4.821918082E-1,-7.407779038E-1,1.767421700E0
4.337672250E0,1.946020612E0,-9.089245301E-1,-6.312110227E-1,2.238653028E0
4.347631250E0,2.026049699E0,-9.738473350E-1,-3.705140823E-1,2.278274939E0
4.357589250E0,1.812663165E0,-7.828351718E-1,4.778929353E-3,1.974487653E0
4.367548250E0,1.588929398E0,-6.753680259E-1,4.741682589E-1,1.790434065E0
4.377507250E0,1.564452661E0,-7.463789517E-1,1.070052159E0,2.037057999E0
4.387466250E0,1.579223605E0,-8.728594887E-1,1.729114639E0,2.499133513E0
4.397424250E0,1.520146846E0,-1.062486446E0,2.397619788E0,3.031221624E0
4.407383250E0,1.322684619E0,-1.314958109E0,2.630651797E0,3.224738487E0
4.417342250E0,1.053688433E0,-1.544438519E0,2.233034116E0,2.912385795E0
4.427300250E0,6.857381359E-1,-1.683124534E0,1.442658960E0,2.320433119E0
4.437259250E0,3.510901070E-1,-1.637947776E0,4.245967340E-1,1.728126028E0
4.447218250E0,1.182176265E-1,-1.473404789E0,-5.406078315E-1,1.573897680E0
4.457177250E0,-1.536804047E-2,-1.291612515E0,-1.286652322E0,1.823176696E0
4.467135250E0,-9.023297114E-2,-1.153362118E0,-1.763626075E0,2.109209117E0
4.477094250E0,-2.290754997E-2,-1.090441400E0,-2.052408947E0,2.324213778E0
4.487053250E0,1.748282214E-1,-9.910422421E-1,-2.151053229E0,2.374817809E0
4.497011250E0,4.185259720E-1,-7.877719760E-1,-2.108017722E0,2.288992659E0
4.506970250E0,6.183858861E-1,-5.450669181E-1,-2.013319725E0,2.175535650E0
4.516929250E0,7.782413068E-1,-2.930928540E-1,-1.971392850E0,2.139615088E0
4.526888250E0,9.830971916E-1,-1.177377802E-1,-1.945024247E0,2.182535588E0
4.536846250E0,1.248160979E0,1.324862123E-2,-1.834076838E0,2.218539881E0
4.546805250E0,1.517945808E0,1.000645709E-1,-1.628742505E0,2.228671026E0
4.556764250E0,1.573728099E0,1.327271175E-1,-1.407240620E0,2.115316237E0
4.566722250E0,1.451790118E0,1.223956722E-1,-1.273792541E0,1.935257782E0
4.576681250E0,1.214333959E0,8.012498081E-2,-1.201799868E0,1.710365429E0
4.586640250E0,8.111464398E-1,-4.487504125E-2,-1.076846039E0,1.348914270E0
4.596599250E0,3.034315353E-1,-1.911753005E-1,-9.694157302E-1,1.033627375E0
4.606557250E0,-2.535434751E-1,-3.137703627E-1,-8.077881646E-1,9.029163046E-1
4.616516250E0,-7.354089173E-1,-4.114258808E-1,-6.450104517E-1,1.061195559E0
4.626475250E0,-1.032803714E0,-4.169243100E-1,-5.099245673E-1,1.224962227E0
4.636433250E0,-1.198238767E0,-3.215366346E-1,-2.957708788E-1,1.275398904E0
4.646392250E0,-1.238224513E0,-1.366216555E-1,-8.379118502E-2,1.248553717E0
4.656351250E0,-1.130912026E0,3.684184402E-2,3.356535673E-2,1.132009702E0
4.666310250E0,-1.011711126E0,1.746864447E-1,1.636986494E-2,1.026811925E0
4.676268250E0,-8.827355091E-1,3.113589710E-1,-1.609130359E-1,9.497680732E-1
4.686227250E0,-7.177706451E-1,4.738571870E-1,-3.464966440E-1,9.272514529E-1
4.696186250E0,-5.793967983E-1,6.867779902E-1,-4.766235048E-1,1.017120751E0
4.706144250E0,-4.944641637E-1,8.208178076E-1,-6.278740168E-1,1.145627541E0
4.716103250E0,-4.520953487E-1,8.591284722E-1,-7.150998563E-1,1.205761063E0
4.726062250E0,-4.185040815E-1,8.638173544E-1,-6.532760757E-1,1.161075243E0
4.736021250E0,-3.979075567E-1,8.647534937E-1,-5.652304566E-1,1.107074748E0
4.745979250E0,-4.012237320E-1,8.418376708E-1,-5.585424113E-1,1.087033013E0
4.755938250E0,-4.534480290E-1,8.097133604E-1,-6.130910861E-1,1.112264142E0
4.765897250E0,-4.928601263E-1,7.255432758E-1,-6.911905915E-1,1.116722250E0
4.775855250E0,-4.841009972E-1,6.804776153E-1,-6.529614955E-1,1.060076542E0
4.785814250E0,-4.595500370E-1,6.625012279E-1,-5.533980310E-1,9.779281641E-1
4.795773250E0,-4.914739707E-1,6.452981347E-1,-4.623867041E-1,9.336797152E-1
4.805732250E0,-5.721375897E-1,6.932403329E-1,-2.082304591E-1,9.226502614E-1
4.815690250E0,-7.064288009E-1,7.691292983E-1,1.557581306E-1,1.055870316E0
4.825649250E0,-8.827155554E-1,7.957586879E-1,3.600598454E-2,1.188997507E0
4.835608250E0,-1.215000542E0,7.281537652E-1,-3.549078637E-1,1.460271829E0
4.845566250E0,-1.555875234E0,6.761328417E-1,-4.868871224E-1,1.764925617E0
4.855525250E0,-1.682244236E0,5.808021766E-1,-4.664727384E-1,1.839802612E0
4.865484250E0,-1.653118377E0,4.775052649E-1,-4.316016984E-1,1.774004418E0
4.875443250E0,-1.452491637E0,3.778599393E-1,-4.222818214E-1,1.559112577E0
4.885401250E0,-1.301648676E0,2.311427736E-1,-5.578898621E-1,1.434906741E0
4.895360250E0,-1.270131599E0,9.950031459E-2,-8.001446843E-1,1.504448772E0
4.905319250E0,-1.313632399E0,1.287966192E-1,-9.680644387E-1,1.636877334E0
4.915277250E0,-1.273138530E0,2.011705309E-1,-7.897407335E-1,1.511635447E0
4.925236250E0,-1.236336886E0,1.042973703E-1,-4.902364075E-2,1.241696482E0
4.935195250E0,-1.226674069E0,-1.268015492E-1,1.380371495E0,1.851008744E0
4.945154250E0,-1.344535664E0,-3.953665030E-1,3.013946723E0,3.323848022E0
4.955112250E0,-1.715603332E0,-6.632873860E-1,4.364274055E0,4.736046133E0
4.965071250E0,-2.145673498E0,-1.031713428E0,5.204193254E0,5.722934106E0
4.975030250E0,-2.494943184E0,-1.486071905E0,5.429967114E0,6.157734491E0
4.984988250E0,-2.743041129E0,-1.790922047E0,4.995342405E0,5.973702551E0
4.994947250E0,-2.843793917E0,-1.855438178E0,4.049861083E0,5.284996639E0
5.004906250E0,-2.719098535E0,-1.597940542E0,2.947691923E0,4.316920024E0
5.014864250E0,-2.322508210E0,-1.123133475E0,2.123717496E0,3.341504031E0
5.024823250E0,-1.630391566E0,-5.327757785E-1,1.768345948E0,2.463549082E0
5.034782250E0,-7.922958937E-1,-6.056545973E-2,1.717802616E0,1.892682431E0
5.044741250E0,-5.623932414E-2,1.372288889E-1,1.720698742E0,1.727078107E0
5.054699250E0,4.829989433E-1,1.894889635E-1,1.631538643E0,1.712049179E0
5.064658250E0,8.168590964E-1,1.976025599E-1,1.335350273E0,1.577804141E0
5.074617250E0,8.808804068E-1,2.521933347E-1,8.852129012E-1,1.274030474E0
5.084575250E0,8.753238709E-1,3.226081368E-1,3.300536889E-1,9.895470309E-1
5.094534250E0,8.731164008E-1,4.011678180E-1,-3.069051468E-1,1.008691547E0
5.104493250E0,8.872440778E-1,4.649530470E-1,-9.436850578E-1,1.376199432E0
5.114452250E0,8.836392693E-1,5.545323908E-1,-1.482704201E0,1.812935817E0
5.124410250E0,9.472540520E-1,6.644489354E-1,-1.831171356E0,2.166095834E0
5.134369250E0,1.047962767E0,7.345295691E-1,-2.071714114E0,2.435109652E0
5.144328250E0,1.044925065E0,7.731767410E-1,-2.214014293E0,2.567397506E0
5.154286250E0,9.491981050E-1,8.296991435E-1,-2.302982603E0,2.625472639E0
5.164245250E0,8.242536315E-1,8.291468740E-1,-2.371052964E0,2.643628329E0
5.174204250E0,6.981660274E-1,7.513414836E-1,-2.368840377E0,2.581347431E0
5.184163250E0,5.908161912E-1,6.852167836E-1,-2.266033462E0,2.439978169E0
5.194121250E0,4.557174430E-1,5.620144880E-1,-2.115824924E0,2.236124724E0
5.204080250E0,3.036979125E-1,4.414449012E-1,-1.844422317E0,1.920676887E0
5.214039250E0,2.029540596E-1,3.770229104E-1,-1.357881349E0,1.423790148E0
5.223997250E0,2.329756199E-1,3.136806080E-1,-9.421256053E-1,1.019938145E0
5.233956250E0,3.087646345E-1,1.686135265E-1,-7.478278917E-1,8.264458098E-1
5.243915000E0,3.668608151E-1,2.345142782E-2,-8.117636865E-1,8.911212655E-1
5.253873000E0,4.283466996E-1,-7.115155131E-2,-9.040181315E-1,1.002891929E0
5.263832000E0,5.392683075E-1,-1.064856908E-1,-9.466893572E-1,1.094700986E0
5.273791000E0,7.651331650E-1,-1.012919015E-1,-8.228517616E-1,1.128172784E0
5.283750000E0,9.622256284E-1,-1.408021224E-1,-5.469140536E-1,1.115714291E0
5.293708000E0,1.015466573E0,-2.876920733E-1,-3.416118801E-1,1.109341141E0
5.303667000E0,8.637701382E-1,-5.437700057E-1,-1.919336843E-1,1.038567865E0
5.313626000E0,6.513255908E-1,-8.286092225E-1,-3.734207332E-2,1.054614953E0
5.323584000E0,4.317197025E-1,-1.153546013E0,1.275195873E-1,1.238269579E0
5.333543000E0,2.947077454E-1,-1.446568700E0,2.640298533E-1,1.499708446E0
5.343502000E0,1.405687271E-1,-1.576199133E0,6.115941989E-1,1.696529026E0
5.353460000E0,-3.487412805E-2,-1.539501130E0,9.194536114E-1,1.793509096E0
5.363419000E0,4.967407040E-2,-1.514524164E0,7.567583442E-1,1.693792829E0
5.373378000E0,2.164840598E-1,-1.492389529E0,5.591218704E-1,1.608324942E0
5.383337000E0,3.714180619E-1,-1.435937585E0,6.558389103E-1,1.621725255E0
5.393295000E0,5.339760657E-1,-1.414870360E0,8.427808267E-1,1.731261995E0
5.403254000E0,7.591500016E-1,-1.396755101E0,1.116328193E0,1.942529838E0
5.413213000E0,8.262907284E-1,-1.374267879E0,1.192654238E0,1.998447573E0
5.423171000E0,8.004926667E-1,-1.366279413E0,9.173275638E-1,1.830026722E0
5.433130000E0,8.110267912E-1,-1.296145569E0,4.551262164E-1,1.595273540E0
5.443089000E0,9.487597100E-1,-1.204227924E0,5.701035261E-3,1.533082640E0
5.453048000E0,1.245256374E0,-1.047046289E0,-1.564633048E-1,1.634457138E0
5.463006000E0,1.614756403E0,-8.467695048E-1,2.518746614E-2,1.823483273E0
5.472965000E0,1.811193321E0,-6.327500099E-1,5.677295566E-1,2.000777516E0
5.482924000E0,1.679230434E0,-4.519020617E-1,1.229449596E0,2.129689328E0
5.492882000E0,1.378481090E0,-4.338657403E-1,1.591747171E0,2.149908987E0
5.502841000E0,9.487969130E-1,-5.340326375E-1,1.476288051E0,1.834348072E0
5.512800000E0,4.923214150E-1,-6.793505645E-1,1.078362806E0,1.366295688E0
5.522758000E0,2.139678202E-1,-7.116456136E-1,4.473079044E-1,8.673557913E-1
5.532717000E0,1.709682003E-2,-5.610321558E-1,-2.863264561E-1,6.301049282E-1
5.542676000E0,-6.398856595E-2,-2.871017969E-1,-8.486391521E-1,8.981705789E-1
5.552635000E0,1.285365643E-1,4.490135372E-2,-1.012880423E0,1.021990475E0
5.562593000E0,5.244580777E-1,3.405909562E-1,-7.774545640E-1,9.977444932E-1
5.572552000E0,9.363927028E-1,5.847937784E-1,-3.892842293E-1,1.170622599E0
5.582511000E0,1.211936162E0,6.822396737E-1,2.619435668E-2,1.391016311E0
5.592469000E0,1.272965452E0,7.456690997E-1,4.234571117E-1,1.534854838E0
5.602428000E0,1.290144864E0,8.244229084E-1,6.655102050E-1,1.669446236E0
5.612387000E0,1.290349517E0,8.635463360E-1,7.515689403E-1,1.724984064E0
5.622345000E0,1.213076223E0,8.837013960E-1,6.743728298E-1,1.645375578E0
5.632304000E0,1.190858558E0,9.098665166E-1,4.795476973E-1,1.573520631E0
5.642263000E0,1.221861299E0,9.731342670E-1,1.570462722E-1,1.569904095E0
5.652221000E0,1.219071958E0,1.072358593E0,-3.210127240E-1,1.655034308E0
5.662180000E0,1.087375997E0,1.159837909E0,-6.768426937E-1,1.727925510E0
5.672139000E0,8.978159899E-1,1.182267244E0,-8.824068224E-1,1.726983262E0
5.682098000E0,7.673190004E-1,1.157050834E0,-9.553590238E-1,1.685305891E0
5.692056000E0,7.792835730E-1,1.198434503E0,-7.240039963E-1,1.602407542E0
5.702015000E0,7.212875260E-1,1.181362387E0,-5.333999687E-1,1.483370592E0
5.711974000E0,5.312972369E-1,1.095282310E0,-4.750324774E-1,1.306742494E0
5.721932000E0,3.940172214E-1,9.997519621E-1,-4.958088040E-1,1.183460995E0
5.731891000E0,2.969123284E-1,9.218538934E-1,-6.538292223E-1,1.168530780E0
5.741850000E0,2.061605813E-1,9.153590986E-1,-8.828067720E-1,1.288305966E0
5.751809000E0,2.129769729E-1,9.237671024E-1,-1.151809098E0,1.491767089E0
5.761767000E0,3.033789834E-1,9.963401118E-1,-1.367045106E0,1.718588010E0
5.771726000E0,3.814209668E-1,1.085955124E0,-1.517867602E0,1.904915363E0
5.781685000E0,4.665577423E-1,1.169320339E0,-1.550431330E0,1.997203918E0
5.791643000E0,5.341288973E-1,1.242480409E0,-1.481801975E0,2.006187514E0
5.801602000E0,6.622951135E-1,1.329445755E0,-1.331594607E0,1.994794483E0
5.811561000E0,7.901195600E-1,1.363309904E0,-1.061637431E0,1.899993908E0
5.821519000E0,8.368635906E-1,1.363333293E0,-7.184035331E-1,1.753602570E0
5.831478000E0,7.783041644E-1,1.292323245E0,-4.587672776E-1,1.576808218E0
5.841437000E0,6.847228400E-1,1.153050461E0,-2.890348864E-1,1.371827941E0
5.851395000E0,5.559000911E-1,1.051998296E0,-1.805725443E-1,1.203466563E0
5.861354000E0,4.140626461E-1,9.567720035E-1,4.945984304E-2,1.043698624E0
5.871313000E0,2.820931450E-1,8.341161302E-1,2.854756862E-1,9.256471404E-1
5.881272000E0,1.766426672E-1,6.258219364E-1,5.143468165E-1,8.291009442E-1
5.891230000E0,8.067425363E-2,4.282503667E-1,7.577582181E-1,8.741305559E-1
5.901189000E0,2.183025073E-2,2.753661427E-1,9.406000668E-1,9.803221705E-1
5.911148000E0,8.085310534E-3,1.876693100E-1,8.113350856E-1,8.327963517E-1
5.921106000E0,-2.695599306E-2,1.531882793E-1,3.656620628E-1,3.973688697E-1
5.931065000E0,-8.333159387E-2,1.551400799E-1,-5.985268414E-2,1.859971578E-1
5.941024000E0,-2.683718495E-2,1.014795971E-1,-1.122501683E-1,1.536829314E-1
5.950982000E0,1.103369594E-3,4.920285791E-2,1.764865100E-2,5.228397014E-2
5.960941000E0,-1.258027717E-1,-7.618395746E-2,6.202258587E-2,1.596155816E-1
5.970900000E0,-3.039354191E-1,-1.892802179E-1,-3.936579466E-2,3.602130004E-1
5.980858000E0,-4.862653441E-1,-8.989860177E-2,-3.060081840E-2,4.954514644E-1
5.990817000E0,-5.580152117E-1,2.158733547E-2,3.533905113E-1,6.608569006E-1
6.000776000E0,-5.072888983E-1,1.583399686E-1,1.060315960E0,1.186036891E0
6.010735000E0,-3.598273455E-1,2.066929337E-1,1.936483219E0,1.980445643E0
6.020693000E0,-1.767028570E-1,6.571130186E-2,2.890919552E0,2.897060188E0
6.030652000E0,-8.191320553E-2,-2.217270023E-1,3.747358890E0,3.754806424E0
6.040611000E0,-7.469660852E-2,-4.745404342E-1,4.418698769E0,4.444734752E0
6.050569000E0,-2.004549048E-1,-6.846583745E-1,4.665676972E0,4.719902633E0
6.060528000E0,-4.413585817E-1,-8.820434180E-1,4.570671996E0,4.675878579E0
6.070487000E0,-6.617871366E-1,-1.014100152E0,4.033866609E0,4.211702881E0
6.080445000E0,-8.121647324E-1,-1.094349386E0,3.046429176E0,3.337355668E0
6.090404000E0,-8.549273209E-1,-1.053221533E0,1.895732219E0,2.331089223E0
6.100363000E0,-7.021486390E-1,-9.289339945E-1,8.355589306E-1,1.433209616E0
6.110322000E0,-4.081700049E-1,-8.043897629E-1,5.459779143E-2,9.036739248E-1
6.120280000E0,-3.383425556E-2,-6.474551725E-1,-5.023138314E-1,8.201598274E-1
6.130239000E0,3.193814971E-1,-4.250303051E-1,-7.151875645E-1,8.911501295E-1
6.140198000E0,6.092784823E-1,-2.022326776E-1,-4.738834995E-1,7.979247433E-1
6.150156000E0,8.079207502E-1,-1.786415014E-1,1.420581043E-2,8.275569646E-1
6.160115000E0,9.482029089E-1,-3.332027069E-1,4.331225592E-1,1.094398443E0
6.170074000E0,1.013781333E0,-5.216151980E-1,6.446625423E-1,1.309742264E0
6.180032000E0,9.680496014E-1,-6.659025532E-1,6.665521789E-1,1.350865666E0
6.189991000E0,8.741276767E-1,-7.893287972E-1,4.673340333E-1,1.267099145E0
6.199950000E0,7.934727920E-1,-8.763830209E-1,1.194469213E-1,1.188239807E0
6.209908000E0,7.630758221E-1,-9.683746335E-1,-2.725287813E-1,1.262658338E0
6.219867000E0,7.707141861E-1,-1.025114552E0,-7.586060643E-1,1.490081663E0
6.229826000E0,7.380463039E-1,-1.049603276E0,-1.148432915E0,1.721998126E0
6.239786042E0,7.430185568E-1,-1.067887227E0,-1.381425748E0,1.897576560E0
6.249744042E0,7.353236941E-1,-1.146244887E0,-1.517930167E0,2.039286706E0
6.259703042E0,6.618886589E-1,-1.258026401E0,-1.632123365E0,2.164382984E0
6.269662042E0,5.434066013E-1,-1.300192427E0,-1.711826177E0,2.217237006E0
6.279620042E0,3.809864455E-1,-1.336210399E0,-1.827369497E0,2.295623702E0
6.289579042E0,2.612976687E-1,-1.340951906E0,-1.971713278E0,2.398766711E0
6.299538042E0,2.235698254E-1,-1.285726416E0,-2.019945205E0,2.404839811E0
6.309496042E0,3.232347391E-1,-1.199194933E0,-1.975233886E0,2.333259113E0
6.319455042E0,4.467239868E-1,-1.074814424E0,-1.896732677E0,2.225395069E0
6.329414042E0,5.849064104E-1,-8.798708850E-1,-1.703501496E0,2.004546240E0
6.339372042E0,6.815350112E-1,-7.851544699E-1,-1.393539425E0,1.738651673E0
6.349331042E0,7.879365020E-1,-8.286349502E-1,-1.046056940E0,1.549746732E0
6.359290042E0,8.403013880E-1,-8.633697501E-1,-6.611511058E-1,1.374276003E0
6.369248042E0,8.617980185E-1,-8.436105466E-1,-4.363437903E-1,1.282486055E0
6.379207042E0,8.966673774E-1,-8.189329576E-1,-2.919152248E-1,1.248950789E0
6.389166042E0,9.705354720E-1,-8.448700368E-1,-2.740221602E-1,1.315611123E0
6.399125042E0,9.527952390E-1,-8.702738500E-1,-3.520269406E-1,1.337579272E0
6.409083042E0,9.281269325E-1,-9.118177325E-1,-3.453125829E-1,1.346132222E0
6.419042042E0,9.194266411E-1,-9.171071237E-1,-2.027340764E-1,1.314356090E0
6.429001042E0,9.204152591E-1,-8.919199499E-1,1.728320003E-2,1.281789435E0
6.438959042E0,9.106683891E-1,-8.261004746E-1,2.460256916E-1,1.253908908E0
6.448918042E0,9.716228349E-1,-6.829141501E-1,5.393103343E-1,1.304330597E0
6.458877042E0,1.080775733E0,-4.648334715E-1,8.779763871E-1,1.467988037E0
6.468835042E0,1.137473552E0,-2.482985044E-1,1.069086784E0,1.580646950E0
6.478794042E0,1.233228213E0,-1.180915368E-1,8.133003348E-1,1.481976677E0
6.488753042E0,1.137826505E0,-6.197726995E-2,6.037267703E-1,1.289564403E0
6.498711042E0,9.920781494E-1,-1.104889870E-1,6.397754395E-1,1.185638850E0
6.508670042E0,9.558760639E-1,-2.454088104E-1,6.876354843E-1,1.202816317E0
6.518629042E0,8.765921319E-1,-2.699910897E-1,6.061744148E-1,1.099434571E0
6.528588042E0,7.292996733E-1,-1.827368912E-1,3.142317080E-1,8.148695302E-1
6.538546042E0,1.084516855E0,1.076077715E-1,4.031538248E-2,1.090587718E0
6.548505042E0,1.497151794E0,3.124752045E-1,-1.059872156E-1,1.533081060E0
6.558464042E0,1.931402134E0,4.694746989E-1,4.635497153E-2,1.988182457E0
6.568422042E0,2.271488768E0,5.675895157E-1,7.154974669E-1,2.448214800E0
6.578381042E0,2.349041997E0,4.684318480E-1,1.754345375E0,2.969032569E0
6.588340042E0,2.107784418E0,2.060637733E-1,2.927310868E0,3.613082666E0
6.598298042E0,1.645019837E0,7.604596317E-3,4.035220240E0,4.357654240E0
6.608257042E0,1.169608972E0,-2.526915175E-1,4.694994911E0,4.845081564E0
6.618216042E0,8.318747462E-1,-6.338019240E-1,4.590780571E0,4.708395345E0
6.628174042E0,6.515020305E-1,-1.020106705E0,3.618334229E0,3.815418087E0
6.638133042E0,5.351304522E-1,-1.200278715E0,2.060919569E0,2.444263297E0
6.648092042E0,4.958740736E-1,-1.043257001E0,5.208939439E-1,1.267125395E0
6.658050042E0,6.245143528E-1,-7.125124633E-1,-6.903825063E-1,1.172314033E0
6.668009042E0,8.867284264E-1,-4.247402832E-1,-1.542965605E0,1.829599538E0
6.677968042E0,1.190035562E0,-2.066142887E-1,-2.018064741E0,2.351905483E0
6.687927042E0,1.444717326E0,-9.599841714E-2,-2.188895824E0,2.624440660E0
6.697885042E0,1.638570359E0,-5.828943104E-2,-1.987683778E0,2.576663982E0
6.707844042E0,1.811554971E0,-1.037456855E-1,-1.519697780E0,2.366849366E0
6.717803042E0,1.935925979E0,-1.957869995E-1,-1.011534979E0,2.193021878E0
6.727761042E0,1.959749144E0,-3.316537794E-1,-7.670874506E-1,2.130500902E0
6.737720042E0,1.922208996E0,-4.598326403E-1,-7.956779963E-1,2.130595446E0
6.747679042E0,1.787691753E0,-5.687168589E-1,-8.691114235E-1,2.067519126E0
6.757637042E0,1.603806761E0,-6.731498846E-1,-1.030135556E0,2.021510861E0
6.767596042E0,1.322392259E0,-7.563274044E-1,-1.227904177E0,1.956655590E0
6.777555042E0,1.004376890E0,-7.752887553E-1,-1.421137113E0,1.905118444E0
6.787513042E0,7.554861362E-1,-7.393739873E-1,-1.456518030E0,1.799688297E0
6.797472042E0,5.731027823E-1,-7.319658574E-1,-1.431750979E0,1.707082798E0
6.807431042E0,3.378928316E-1,-7.344243193E-1,-1.409303518E0,1.624711375E0
6.817389042E0,1.294742384E-1,-7.314059865E-1,-1.405796358E0,1.589962797E0
6.827348042E0,-8.419420436E-2,-6.720930004E-1,-1.435001446E0,1.586829170E0
6.837307042E0,-3.419480950E-1,-5.433066139E-1,-1.340740237E0,1.486504275E0
6.847265042E0,-5.447216401E-1,-4.302489451E-1,-1.253854120E0,1.433173393E0
6.857224042E0,-7.116535074E-1,-3.307796207E-1,-1.198021982E0,1.432174061E0
6.867183042E0,-8.231406871E-1,-2.268845388E-1,-1.120106664E0,1.408430376E0
6.877142042E0,-7.609916552E-1,-6.097564191E-2,-1.057896382E0,1.304596138E0
6.887100042E0,-5.420677350E-1,2.234533927E-1,-9.149869233E-1,1.086724398E0
6.897059042E0,-2.071297207E-1,6.157729116E-1,-7.512058282E-1,9.931712824E-1
6.907018042E0,1.190887794E-1,9.045645538E-1,-7.346646398E-1,1.171388621E0
6.916976042E0,2.142646395E-1,1.060858874E0,-8.638898599E-1,1.384787556E0
6.926935042E0,1.251304150E-1,1.198266103E0,-9.451737589E-1,1.531291190E0
6.936894042E0,-2.395940468E-2,1.279074623E0,-8.582414496E-1,1.540514307E0
6.946852042E0,-1.724881840E-1,1.299559466E0,-6.096201789E-1,1.445767527E0
6.956811042E0,-2.845984577E-1,1.249134540E0,-1.642441946E-1,1.291630573E0
6.966770042E0,-2.756443240E-1,1.206167738E0,3.688277453E-1,1.291067121E0
6.976728042E0,-2.641760337E-1,1.197301605E0,7.197729510E-1,1.421757086E0
6.986687042E0,-3.280904862E-1,1.293541512E0,1.033619328E0,1.687975688E0
6.996646042E0,-3.611835341E-1,1.479556937E0,1.251049796E0,1.970956079E0
7.006604042E0,-3.940625739E-1,1.555593837E0,9.797629631E-1,1.880184289E0
7.016563042E0,-4.392052715E-1,1.601052430E0,4.623101056E-1,1.723369023E0
7.026522042E0,-4.880368312E-1,1.649366804E0,8.113713384E-2,1.721968071E0
7.036480042E0,-4.225621954E-1,1.512140839E0,-7.515601695E-2,1.571870590E0
7.046439042E0,-3.879300141E-1,1.338636701E0,-1.064175707E-1,1.397770586E0
7.056398042E0,-4.634783792E-1,1.266228290E0,1.834441119E-1,1.360807861E0
7.066357042E0,-5.971039215E-1,1.262311825E0,9.832005411E-1,1.707819528E0
7.076315042E0,-7.314596348E-1,1.116653006E0,2.101978133E0,2.490031968E0
7.086274042E0,-8.339997706E-1,8.492972562E-1,3.103288085E0,3.323741625E0
7.096233042E0,-8.212611727E-1,5.943419892E-1,3.802725590E0,3.935534808E0
7.106191042E0,-6.835982743E-1,3.559632862E-1,4.249728854E0,4.319052187E0
7.116150042E0,-5.567101863E-1,9.529996723E-2,4.291175088E0,4.328185758E0
7.126109042E0,-3.980797572E-1,-1.771016371E-1,3.978672987E0,4.002458147E0
7.136067042E0,-2.235285294E-1,-2.957656163E-1,3.460467592E0,3.480269855E0
7.146026042E0,-1.697280058E-1,-2.343534797E-1,2.724040017E0,2.739365467E0
7.155985042E0,-2.022630101E-1,-1.299464741E-1,1.954565148E0,1.969294628E0
7.165943042E0,-1.333332545E-1,-3.311015099E-2,1.264719416E0,1.272159283E0
7.175902042E0,3.945503779E-2,-3.589547217E-2,7.653145748E-1,7.671711565E-1
7.185861042E0,2.476671512E-1,-1.596973997E-1,3.688376856E-1,4.721054073E-1
7.195819042E0,3.690650692E-1,-2.943198922E-1,1.170922476E-1,4.863577065E-1
7.205778042E0,5.615781395E-1,-4.385268483E-1,1.012386918E-2,7.125856413E-1
7.215737042E0,8.225862249E-1,-5.289218786E-1,-5.816927075E-2,9.796887848E-1
7.225695042E0,1.080825069E0,-5.980716357E-1,-1.083459824E-1,1.240004582E0
7.235654042E0,1.382066749E0,-6.357738975E-1,-3.312167001E-1,1.556926925E0
7.245612875E0,1.680342136E0,-6.510517949E-1,-6.188166797E-1,1.905348319E0
7.255570875E0,1.762633949E0,-7.317041945E-1,-8.101352370E-1,2.073303781E0
7.265529875E0,1.681082101E0,-9.018388742E-1,-9.063956094E-1,2.112085081E0
7.275488875E0,1.460602310E0,-1.170408798E0,-9.460034788E-1,2.097173919E0
7.285447875E0,1.143707342E0,-1.466743933E0,-9.264357716E-1,2.077904591E0
7.295405875E0,8.541843590E-1,-1.741039743E0,-9.242617768E-1,2.148280740E0
7.305364875E0,6.655803716E-1,-2.003306661E0,-9.421220970E-1,2.311672307E0
7.315323875E0,5.672384635E-1,-2.259569658E0,-1.131862491E0,2.590082472E0
7.325281875E0,5.076433858E-1,-2.374001130E0,-1.486534712E0,2.846641639E0
7.335240875E0,4.948746017E-1,-2.207551073E0,-1.821800024E0,2.904675186E0
7.345199875E0,5.866728907E-1,-1.917162556E0,-2.062141052E0,2.876129877E0
7.355157875E0,7.874128839E-1,-1.576673049E0,-2.246975048E0,2.855663464E0
7.365116875E0,1.035771395E0,-1.332279608E0,-2.355484752E0,2.897602415E0
7.375075875E0,1.256553195E0,-1.177766057E0,-2.425960073E0,2.975120349E0
7.385033875E0,1.345233237E0,-1.034153178E0,-2.322202401E0,2.876064889E0
7.394992875E0,1.331107534E0,-9.884314603E-1,-2.089941055E0,2.667713933E0
7.404951875E0,1.291842457E0,-1.020040923E0,-1.837386362E0,2.466845975E0
7.414909875E0,1.277603464E0,-1.019101861E0,-1.514503114E0,2.228129012E0
7.424868875E0,1.290107150E0,-1.000640739E0,-1.118928450E0,1.979307763E0
7.434827875E0,1.419340264E0,-1.009008982E0,-7.445148593E-1,1.893918764E0
7.444785875E0,1.512318155E0,-9.459362358E-1,-3.784054846E-1,1.823483555E0
7.454744875E0,1.495597019E0,-8.541127306E-1,-1.223547417E-1,1.726641156E0
7.464703875E0,1.455457930E0,-7.913136345E-1,-9.109435737E-2,1.659166428E0
7.474661875E0,1.421866699E0,-7.534441423E-1,-1.090312761E-1,1.612845562E0
7.484620875E0,1.329741624E0,-7.898079765E-1,-1.350087011E-1,1.552493728E0
7.494579875E0,1.184569073E0,-8.331516320E-1,-1.338608927E-1,1.454394812E0
7.504538875E0,1.052145426E0,-8.307533965E-1,-5.325760961E-2,1.341639883E0
7.514496875E0,9.574906994E-1,-8.068353608E-1,9.742806137E-2,1.255891702E0
7.524455875E0,8.871169008E-1,-7.920658788E-1,2.415888244E-1,1.213552600E0
7.534414875E0,8.322877789E-1,-7.475519031E-1,3.312704945E-1,1.166737732E0
7.544372875E0,7.894865989E-1,-6.314949051E-1,4.645659614E-1,1.112607944E0
7.554331875E0,7.933881535E-1,-4.486732292E-1,6.341141653E-1,1.110348235E0
7.564290875E0,8.651125858E-1,-3.348203391E-1,6.045904040E-1,1.107273228E0
7.574248875E0,8.960521773E-1,-3.150681522E-1,3.217366093E-1,1.002841907E0
7.584207875E0,8.705089811E-1,-2.393110415E-1,1.164092928E-1,9.102784103E-1
7.594166875E0,9.360026204E-1,-1.798413500E-1,2.157096326E-2,9.533672550E-1
7.604124875E0,1.051819883E0,-1.343707699E-1,8.941971481E-2,1.064131784E0
7.614083875E0,1.094045331E0,6.587765515E-3,3.843614584E-1,1.159617314E0
7.624042875E0,1.119381170E0,1.481088030E-1,6.492105067E-1,1.302468696E0
7.634000875E0,1.196582397E0,2.659667435E-1,9.805622774E-1,1.569729315E0
7.643959875E0,1.288609970E0,3.264073652E-1,1.531077046E0,2.027622831E0
7.653918875E0,1.369172761E0,2.919760358E-1,2.161355438E0,2.575139100E0
7.663876875E0,1.344332620E0,1.829275104E-1,2.751228985E0,3.067564766E0
7.673835875E0,1.200653229E0,6.511722475E-2,3.140154195E0,3.362495621E0
7.683794875E0,9.349102874E-1,-7.889940441E-3,3.240461426E0,3.372641361E0
7.693752875E0,6.383547123E-1,-7.126674145E-2,3.157912774E0,3.222574867E0
7.703711875E0,3.471855922E-1,-1.378203347E-1,2.748153934E0,2.773424296E0
7.713670875E0,8.593106495E-2,-2.159581393E-1,1.999440774E0,2.012904736E0
7.723628875E0,-1.033823176E-1,-2.678147560E-1,1.143203166E0,1.178696791E0
7.733587875E0,-1.419274373E-1,-2.299350312E-1,3.865062171E-1,4.715936513E-1
7.743546875E0,-1.797543727E-2,-1.271418571E-1,-8.462090492E-2,1.537818771E-1
7.753504875E0,2.739961401E-1,4.566938549E-2,-3.291754371E-1,4.307157368E-1
7.763463875E0,6.811573541E-1,2.676606819E-1,-3.211396086E-1,7.992172608E-1
7.773422875E0,1.070342619E0,4.028909925E-1,-1.409325153E-1,1.152309181E0
7.783380875E0,1.368642273E0,4.710321048E-1,1.309548265E-1,1.453341694E0
7.793339875E0,1.491293761E0,4.906085828E-1,3.353460038E-1,1.605338221E0
7.803298875E0,1.508369092E0,4.506522194E-1,3.455488104E-1,1.611728489E0
7.813256875E0,1.451168559E0,3.558162287E-1,2.274894333E-1,1.511372494E0
7.823215875E0,1.382356771E0,2.333737788E-1,-3.783733249E-2,1.402428332E0
7.833174875E0,1.163569456E0,9.872935921E-2,-4.580486548E-1,1.254372327E0
7.843133875E0,9.388773309E-1,6.269969344E-3,-8.906022799E-1,1.294102923E0
7.853091875E0,6.958837129E-1,-4.649530470E-2,-1.271823199E0,1.450499984E0
7.863050875E0,5.040895943E-1,-9.165890604E-2,-1.538927518E0,1.621975826E0
7.873009875E0,3.137282628E-1,-1.087766299E-1,-1.661692150E0,1.694543767E0
7.882967875E0,1.742271094E-1,-1.101861012E-1,-1.796038361E0,1.807830152E0
7.892926875E0,1.104002920E-1,-7.437979907E-2,-1.809015087E0,1.813906327E0
7.902885875E0,7.656590855E-2,4.400936097E-2,-1.710024065E0,1.712302971E0
7.912843875E0,3.057975015E-2,1.011696947E-1,-1.647429036E0,1.650815816E0
7.922802875E0,8.152845874E-3,1.760523543E-1,-1.615440089E0,1.625025410E0
7.932761875E0,2.663361048E-2,3.297151351E-1,-1.511719254E0,1.547487164E0
7.942719875E0,8.185657891E-2,5.149534652E-1,-1.376624014E0,1.472063602E0
7.952678875E0,1.377221563E-1,6.494727543E-1,-1.261606359E0,1.425634194E0
7.962637875E0,1.496625361E-1,7.831705096E-1,-1.157163978E0,1.405269865E0
7.972595875E0,1.206713009E-1,9.044455630E-1,-1.068083986E0,1.404772843E0
7.982554875E0,1.474345551E-1,9.970438242E-1,-9.913971680E-1,1.413754462E0
7.992513875E0,1.195936773E-1,1.065060098E0,-8.663644016E-1,1.378130232E0
8.002471875E0,2.110625580E-2,1.087659879E0,-7.449183172E-1,1.318466073E0
8.012430875E0,-6.249843502E-2,1.070206818E0,-5.664396608E-1,1.212477866E0
8.022389875E0,-3.179185054E-2,1.095554498E0,-3.277703512E-1,1.143977177E0
8.032347875E0,1.044788076E-1,1.194164574E0,-6.256462276E-2,1.200357939E0
8.042306875E0,2.307944258E-1,1.311171744E0,1.244486296E-1,1.337133079E0
8.052265875E0,3.682302695E-1,1.404418169E0,1.328411382E-1,1.457954284E0
8.062223875E0,4.791471265E-1,1.393919494E0,1.799597561E-1,1.484917182E0
8.072182875E0,5.314193706E-1,1.273247581E0,2.119563049E-1,1.395883743E0
8.082141875E0,4.136431084E-1,1.197217405E0,3.147515255E-1,1.305181466E0
8.092099875E0,2.424765231E-1,1.112405881E0,6.049681342E-1,1.289274273E0
8.102058875E0,1.118203980E-1,1.055106676E0,9.678130084E-1,1.436111388E0
8.112017875E0,-4.178544559E-2,1.018406919E0,8.294392347E-1,1.314103542E0
8.121975875E0,-2.332450487E-1,9.228248236E-1,1.852625960E-1,9.697067274E-1
8.131934875E0,-3.617962858E-1,9.119978267E-1,-3.358079338E-1,1.037016662E0
8.141893875E0,-3.708400280E-1,9.950964090E-1,-5.102397323E-1,1.178169671E0
8.151851875E0,-3.247970420E-1,1.132275012E0,-2.494755489E-1,1.204067220E0
8.161810875E0,-3.589345488E-1,1.218738667E0,8.986234903E-2,1.273669184E0
8.171769875E0,-5.551039562E-1,1.051774640E0,3.042744845E-1,1.227580245E0
8.181727875E0,-7.919585093E-1,6.582163882E-1,2.618997127E-1,1.062562259E0
8.191686875E0,-8.416697826E-1,2.220757887E-1,2.271175504E-2,8.707706373E-1
8.201645875E0,-7.352673416E-1,-6.569025189E-2,-2.281121618E-1,7.726373219E-1
8.211603875E0,-6.017452951E-1,-8.625929475E-2,-1.680606723E-1,6.306999728E-1
8.221562875E0,-4.312643141E-1,7.640556693E-2,4.962531924E-1,6.618866597E-1
8.231521875E0,-1.753447133E-1,1.984299409E-1,1.538722281E0,1.561341240E0
8.241479792E0,-4.424819232E-2,2.157438388E-1,2.371028990E0,2.381235347E0
8.251438792E0,-2.065237299E-1,4.531329006E-2,2.991910322E0,2.999372054E0
8.261397792E0,-4.957813221E-1,-2.364994079E-1,3.097154941E0,3.145488804E0
8.271355792E0,-9.373074996E-1,-5.652605698E-1,2.415315217E0,2.651756485E0
8.281314792E0,-1.337978743E0,-6.865891251E-1,1.315078561E0,1.997754581E0
8.291273792E0,-1.488270019E0,-5.909769166E-1,3.004235083E-1,1.629250027E0
8.301231792E0,-1.330536699E0,-3.735815316E-1,-4.299872822E-1,1.447335528E0
8.311190792E0,-1.035028726E0,-1.644011924E-1,-1.073064644E0,1.499926647E0
8.321149792E0,-7.405763941E-1,6.194774151E-2,-1.355074101E0,1.545482688E0
8.331107792E0,-4.451390624E-1,2.592874691E-1,-1.203668638E0,1.309273450E0
8.341066792E0,-1.493245031E-1,3.443378520E-1,-7.912703651E-1,8.757711769E-1
8.351025792E0,8.034973316E-2,2.330989596E-1,-2.525587857E-1,3.529548765E-1
8.360983792E0,1.410502818E-1,7.280017376E-2,2.064026195E-1,2.603787408E-1
8.370942792E0,8.400665492E-2,2.151716888E-2,4.538684803E-1,4.620786773E-1
8.380901792E0,1.354622623E-2,-2.474980205E-2,5.744398212E-1,5.751322988E-1
8.390860792E0,-6.545702107E-3,-2.356018603E-2,5.674570763E-1,5.679836811E-1
8.400818792E0,3.499896610E-2,-2.825988561E-2,4.826467216E-1,4.847384930E-1
8.410777792E0,1.282146933E-1,-3.282042146E-2,3.271552241E-1,3.529117854E-1
8.420735792E0,1.894861861E-1,-7.214850157E-2,1.007878715E-1,2.264257406E-1
8.430694792E0,2.289148566E-1,-1.526661229E-1,-1.453524256E-1,3.111852893E-1
8.440653792E0,1.542192530E-1,-2.157470548E-1,-3.483759391E-1,4.378312056E-1
8.450612792E0,1.367859988E-1,-2.723212051E-1,-4.185267395E-1,5.177198856E-1
8.460570792E0,2.272946296E-1,-2.715558046E-1,-3.789814353E-1,5.186832675E-1
8.470529792E0,3.582442850E-1,-2.452026960E-1,-3.777780783E-1,5.754820643E-1
8.480488792E0,4.003297658E-1,-2.207712749E-1,-5.403037763E-1,7.077655317E-1
8.490446792E0,4.438626153E-1,-1.956802878E-1,-8.932721186E-1,1.016484075E0
8.500405792E0,4.916946666E-1,-1.684471732E-1,-1.229085315E0,1.334461991E0
8.510364792E0,5.294941383E-1,-1.563580549E-1,-1.311754419E0,1.423204673E0
8.520322792E0,5.481415303E-1,-1.936358088E-1,-1.340330347E0,1.460972074E0
8.530281792E0,5.176902910E-1,-2.047306082E-1,-1.433855392E0,1.538134956E0
8.540240792E0,5.164218106E-1,-2.115496311E-1,-1.355567021E0,1.465949072E0
8.550198792E0,5.923928929E-1,-2.392157319E-1,-1.119724256E0,1.289160934E0
8.560157792E0,7.123876984E-1,-3.022115868E-1,-8.132202280E-1,1.122566352E0
8.570116792E0,7.355248383E-1,-3.751778215E-1,-5.545318061E-1,9.946158603E-1
8.580074792E0,7.018530623E-1,-4.671168092E-1,-4.468547451E-1,9.541881354E-1
8.590033792E0,6.327898441E-1,-5.767766610E-1,-4.789407563E-1,9.810599123E-1
8.599992792E0,5.557800770E-1,-6.645848832E-1,-5.814827925E-1,1.043401552E0
8.609950792E0,5.202957007E-1,-7.035679775E-1,-6.176571769E-1,1.071081651E0
8.619909792E0,5.430374958E-1,-7.440049821E-1,-6.032163084E-1,1.101046343E0
8.629868792E0,5.494902637E-1,-7.247109246E-1,-5.454855788E-1,1.060518737E0
8.639826792E0,5.878708391E-1,-5.925691134E-1,-4.108674717E-1,9.303452890E-1
8.649785792E0,6.151381963E-1,-4.823222011E-1,-3.327521789E-1,8.495608977E-1
8.659744792E0,6.190366812E-1,-4.475821388E-1,-3.012479657E-1,8.211495116E-1
8.669702792E0,5.824824471E-1,-3.998834771E-1,-2.445527780E-1,7.476621280E-1
8.679661792E0,6.302342454E-1,-2.757541054E-1,3.297420323E-2,6.887109907E-1
8.689620792E0,8.148917276E-1,-1.007954729E-1,3.272131115E-1,8.838985663E-1
8.699578792E0,1.031860485E0,-1.728752697E-1,1.011960071E-1,1.051124422E0
8.709537792E0,1.052920840E0,-4.630345756E-1,-1.943450761E-1,1.166539036E0
8.719496792E0,1.061715857E0,-7.322491550E-1,-3.767916530E-1,1.343652237E0
8.729454792E0,1.184795653E0,-8.530479527E-1,-5.790866035E-1,1.570596334E0
8.739413792E0,1.283864078E0,-8.268880945E-1,-8.988755053E-1,1.772012434E0
8.749372792E0,1.344261868E0,-7.260937911E-1,-1.318407381E0,2.018031265E0
8.759330792E0,1.451306699E0,-5.584149420E-1,-1.560447611E0,2.202978694E0
8.769289792E0,1.605218571E0,-3.319493562E-1,-1.212544711E0,2.038916799E0
8.779248792E0,1.873851645E0,-1.785090619E-1,-8.448875785E-2,1.884230300E0
8.789206792E0,2.133993100E0,-2.045262480E-1,1.418956686E0,2.570835587E0
8.799165792E0,2.119066328E0,-2.072416949E-1,2.910002525E0,3.605760103E0
8.809124792E0,1.721528754E0,-1.684082893E-1,4.023488386E0,4.379552648E0
8.819082792E0,1.337582448E0,-3.579212263E-1,4.382237871E0,4.595785370E0
8.829041792E0,7.997534325E-1,-6.937478712E-1,3.887428356E0,4.029018601E0
8.839000792E0,2.428766005E-1,-1.018946909E0,2.528945913E0,2.737299632E0
8.848958792E0,-1.278619418E-1,-1.162713862E0,9.532306373E-1,1.508940307E0
8.858917792E0,-4.084267342E-1,-1.047210011E0,-2.774702632E-1,1.157778455E0
8.868876792E0,-5.348992314E-1,-7.714284235E-1,-1.105903192E0,1.450600176E0
8.878834792E0,-4.461071055E-1,-5.361300337E-1,-1.617362654E0,1.761337252E0
8.888793792E0,-2.365171323E-1,-3.571172342E-1,-1.823436075E0,1.873070258E0
8.898752792E0,1.056580174E-1,-1.707653019E-1,-1.738052693E0,1.749614691E0
8.908710792E0,5.002868211E-1,-8.984831572E-3,-1.390569624E0,1.477853683E0
8.918669792E0,8.979066948E-1,1.396198153E-1,-9.633170843E-1,1.324277135E0
8.928628792E0,1.222888290E0,2.626469868E-1,-5.783323127E-1,1.378008517E0
8.938586792E0,1.435209168E0,2.671809179E-1,-2.711903536E-1,1.484841812E0
8.948545792E0,1.595447289E0,1.828029647E-1,-2.263176513E-1,1.621754808E0
8.958504792E0,1.646262809E0,1.243465957E-1,-3.073781866E-1,1.679322680E0
8.968462792E0,1.564571652E0,1.293021110E-1,-3.899689382E-1,1.617615301E0
8.978421792E0,1.343911328E0,9.622178078E-2,-5.190538251E-1,1.443874358E0
8.988380792E0,1.112948502E0,4.393977910E-2,-5.889531952E-1,1.259940847E0
8.998338792E0,8.827548780E-1,-4.991095573E-2,-6.068205321E-1,1.072370475E0
9.008297792E0,6.186398014E-1,-1.406050712E-1,-6.848498708E-1,9.335439655E-1
9.018256792E0,3.415904281E-1,-1.650549111E-1,-7.676464444E-1,8.562757779E-1
9.028214792E0,7.564710997E-2,-9.367853433E-2,-8.680074692E-1,8.763190741E-1
9.038173792E0,-6.983877830E-2,5.224282533E-2,-9.626563489E-1,9.665992002E-1
9.048131792E0,-1.444364227E-1,2.390186808E-1,-1.052468412E0,1.088890062E0
9.058090792E0,-8.415864598E-2,5.189532530E-1,-1.114605018E0,1.232371496E0
9.068049792E0,1.120904662E-1,8.154752067E-1,-1.117425131E0,1.387877159E0
9.078007792E0,3.880688124E-1,1.053924953E0,-9.770855230E-1,1.488640766E0
9.087966792E0,6.239729007E-1,1.284060544E0,-7.945997697E-1,1.633873452E0
9.097925792E0,7.043738700E-1,1.439664600E0,-6.349719518E-1,1.723939120E0
9.107883792E0,6.285229115E-1,1.493671531E0,-5.236567533E-1,1.703030266E0
9.117842792E0,5.371361934E-1,1.432904050E0,-5.043714666E-1,1.611247927E0
9.127801792E0,4.473490541E-1,1.402674237E0,-5.757051587E-1,1.580839214E0
9.137759792E0,4.222465919E-1,1.435097633E0,-6.287663019E-1,1.622696664E0
9.147718792E0,4.019329262E-1,1.533497209E0,-6.344416094E-1,1.707536214E0
9.157677792E0,3.596105966E-1,1.604634727E0,-6.457705897E-1,1.766689572E0
9.167635792E0,3.417521401E-1,1.685020201E0,-5.997839928E-1,1.820941636E0
9.177594792E0,4.205694643E-1,1.781877867E0,-5.000018424E-1,1.897885468E0
9.187553792E0,5.924708802E-1,1.952505467E0,-2.888764268E-1,2.060764162E0
9.197511792E0,7.781106216E-1,2.055630763E0,7.862750888E-3,2.197984485E0
9.207470792E0,9.676675589E-1,1.972720753E0,2.702378422E-1,2.213828396E0
9.217429792E0,1.005997081E0,1.969926369E0,5.245057690E-1,2.273267764E0
9.227387792E0,8.852338050E-1,1.968207580E0,5.872499013E-1,2.236591695E0
9.237346042E0,6.593385420E-1,1.737596318E0,1.019356799E-1,1.861278904E0
9.247305042E0,3.776268912E-1,1.362254774E0,-5.781007630E-1,1.527265737E0
9.257263042E0,2.503814836E-1,1.038107943E0,-1.018399025E0,1.475633953E0
9.267222042E0,3.273366705E-1,7.644617584E-1,-1.454083834E0,1.675085333E0
9.277181042E0,3.895477560E-1,6.659969857E-1,-1.920011612E0,2.069237548E0
9.287139042E0,3.979307263E-1,8.057948488E-1,-2.108636357E0,2.292160877E0
9.297098042E0,2.587050681E-1,9.895111486E-1,-1.658376194E0,1.948402480E0
9.307057042E0,1.192591709E-1,9.822179165E-1,-4.721919000E-1,1.096330231E0
9.317015042E0,1.533541209E-1,6.193508229E-1,1.141758319E0,1.307946859E0
9.326974042E0,1.117908147E-1,1.076267749E-1,2.618358026E0,2.622952432E0
9.336933042E0,-6.734616509E-2,-3.279656482E-1,3.619227684E0,3.634681004E0
9.346891042E0,-3.222847858E-1,-7.358481163E-1,3.900803277E0,3.982663197E0
9.356850042E0,-4.575302260E-1,-1.109650965E0,3.647483768E0,3.839895443E0
9.366809042E0,-4.522610807E-1,-1.239859979E0,2.998203095E0,3.275822744E0
9.376767042E0,-4.496075412E-1,-1.116917592E0,2.121342942E0,2.439210472E0
9.386726042E0,-4.047936399E-1,-8.937477896E-1,1.218413562E0,1.564344786E0
9.396685042E0,-2.942848820E-1,-6.666767246E-1,6.829080105E-1,9.987115688E-1
9.406643042E0,-9.644656967E-2,-5.314902681E-1,5.144029498E-1,7.459183874E-1
9.416602042E0,1.068167163E-1,-4.801391432E-1,5.430905592E-1,7.327283011E-1
9.426561042E0,3.183353571E-1,-5.642472473E-1,6.864479148E-1,9.438872260E-1
9.436519042E0,5.424624221E-1,-7.613609800E-1,8.130196685E-1,1.238925745E0
9.446478042E0,7.533596501E-1,-8.705825830E-1,8.549974144E-1,1.434045109E0
9.456437042E0,9.889539090E-1,-9.199114484E-1,8.683471924E-1,1.605706621E0
9.466395042E0,1.283473922E0,-9.732895106E-1,8.084354514E-1,1.802266811E0
9.476354042E0,1.507806005E0,-1.016754203E0,7.585025686E-1,1.970429955E0
9.486313042E0,1.515349206E0,-1.102985139E0,7.468198317E-1,2.017572624E0
9.496271042E0,1.409196222E0,-1.218608566E0,7.203395462E-1,1.997430822E0
9.506230042E0,1.219810169E0,-1.358143597E0,6.708259088E-1,1.944864591E0
9.516189042E0,9.986823602E-1,-1.536323753E0,5.838941842E-1,1.923171742E0
9.526147042E0,7.580846389E-1,-1.718492880E0,4.666060549E-1,1.935363353E0
9.536106042E0,5.098270650E-1,-1.832833427E0,3.209244311E-1,1.929298966E0
9.546065042E0,3.792737230E-1,-1.902870207E0,4.169883370E-2,1.940747891E0
9.556023042E0,4.061429214E-1,-1.920857997E0,-3.678471673E-1,1.997488186E0
9.565982042E0,4.380896227E-1,-1.774289058E0,-8.341351336E-1,2.008931457E0
9.575941042E0,5.622663568E-1,-1.470914460E0,-1.315210124E0,2.051709159E0
9.585899042E0,7.816635360E-1,-1.169596912E0,-1.726645945E0,2.227164349E0
9.595858042E0,1.011390991E0,-9.875002912E-1,-1.946097795E0,2.405278610E0
9.605817042E0,1.205505687E0,-7.876059151E-1,-2.005890253E0,2.469243355E0
9.615775042E0,1.367747064E0,-5.629237300E-1,-1.840448549E0,2.361115418E0
9.625734042E0,1.602588932E0,-3.883141762E-1,-1.501791267E0,2.230348895E0
9.635693042E0,1.744811928E0,-3.160805976E-1,-1.214808168E0,2.149426550E0
9.645651042E0,1.720605625E0,-3.050080177E-1,-9.667991012E-1,1.997051354E0
9.655610042E0,1.709766641E0,-3.443474999E-1,-7.238730186E-1,1.888350951E0
9.665569042E0,1.727207716E0,-3.862486473E-1,-4.588111317E-1,1.828371452E0
9.675527042E0,1.625960546E0,-3.869354028E-1,-2.589158785E-1,1.691302496E0
9.685486042E0,1.500498740E0,-3.709599325E-1,-5.932292640E-2,1.546811866E0
9.695444042E0,1.356609141E0,-3.637123087E-1,2.025744474E-1,1.419052999E0
9.705403042E0,1.207117399E0,-3.130739594E-1,4.468828118E-1,1.324708257E0
9.715362042E0,1.104028721E0,-2.614927465E-1,6.759995252E-1,1.320694223E0
9.725320042E0,1.071737326E0,-2.486607394E-1,9.131333560E-1,1.429778160E0
9.735279042E0,1.140879994E0,-2.654226601E-1,1.118059554E0,1.619294141E0
9.745238042E0,1.145968899E0,-2.397560146E-1,1.208739343E0,1.682788894E0
9.755196042E0,1.093690113E0,-8.454576820E-2,1.068823074E0,1.531564172E0
9.765155042E0,1.074870265E0,6.040963143E-2,5.013186353E-1,1.187567170E0
9.775114042E0,1.124965042E0,-5.478841066E-4,9.259065986E-3,1.125003278E0
9.785072042E0,1.182224632E0,-7.098285913E-2,-2.351399302E-1,1.207470262E0
9.795031042E0,1.154391886E0,-1.440309548E-1,-4.305679107E-1,1.240465343E0
9.804990042E0,1.014870961E0,-8.870460033E-2,-6.005564100E-1,1.182581742E0
9.814948042E0,8.817817551E-1,5.354704678E-2,-8.473591965E-1,1.224101286E0
9.824907042E0,8.652407129E-1,5.606310368E-2,-1.196541467E0,1.477665742E0
9.834866042E0,9.520559317E-1,1.350706816E-3,-1.474976521E0,1.755553490E0
9.844824042E0,1.014610103E0,8.849643946E-2,-1.166371588E0,1.548446951E0
9.854783042E0,1.245809667E0,3.032886440E-1,-1.621041137E-1,1.292402210E0
9.864742042E0,1.587715224E0,4.484676996E-1,1.079905302E0,1.971841365E0
9.874700042E0,1.694332915E0,5.400158009E-1,2.311044744E0,2.916043364E0
9.884659042E0,1.460696743E0,5.995182368E-1,3.467263227E0,3.809851883E0
9.894618042E0,9.700150698E-1,4.791866317E-1,4.017163453E0,4.160306632E0
9.904576042E0,3.215839970E-1,2.188949034E-1,3.474916062E0,3.496623069E0
9.914535042E0,-2.820087807E-1,4.172836214E-2,2.119115737E0,2.138205256E0
9.924494042E0,-6.132961041E-1,6.513915181E-2,4.985043705E-1,7.930206982E-1
9.934452042E0,-7.142679437E-1,3.109493735E-1,-7.137544119E-1,1.056557414E0
9.944411042E0,-6.268484882E-1,5.804402339E-1,-1.357951516E0,1.604332326E0
9.954369042E0,-4.252834530E-1,8.237560335E-1,-1.502370726E0,1.765377528E0
9.964328042E0,-1.992299862E-1,9.321891394E-1,-1.339719313E0,1.644237518E0
9.974287042E0,1.141320536E-2,9.190682799E-1,-9.462303507E-1,1.319154517E0
9.984245042E0,2.468555577E-1,8.683854917E-1,-4.311783600E-1,1.000472792E0
9.994204042E0,5.077347851E-1,7.632370591E-1,-1.051990110E-1,9.227091916E-1
1.000416304E1,6.750867017E-1,6.871601057E-1,-4.137606740E-2,9.641799856E-1
1.001412104E1,7.224105569E-1,5.641475523E-1,-1.987907141E-1,9.379004326E-1
1.002408004E1,6.519473691E-1,3.113294426E-1,-5.230919123E-1,8.919565811E-1
1.003403904E1,3.594370804E-1,5.160167813E-4,-9.465355754E-1,1.012484507E0
1.004399704E1,-1.443646299E-1,-2.580195004E-1,-1.365114355E0,1.396764981E0
1.005395604E1,-6.578882132E-1,-4.106727594E-1,-1.727316036E0,1.893433311E0
1.006391504E1,-1.101503162E0,-4.644598344E-1,-1.922162803E0,2.263568421E0
1.007387304E1,-1.439943220E0,-4.295399702E-1,-1.916709105E0,2.435511210E0
1.008383204E1,-1.760487144E0,-2.669739264E-1,-1.803530983E0,2.534425787E0
1.009379104E1,-1.951554125E0,-6.823759139E-2,-1.705368512E0,2.592585897E0
1.010374904E1,-2.024840348E0,1.483067313E-1,-1.618323351E0,2.596332758E0
1.011370804E1,-1.974628699E0,4.018104270E-1,-1.519690179E0,2.523899435E0
1.012366704E1,-1.812445941E0,6.182810748E-1,-1.483805816E0,2.422583636E0
1.013362504E1,-1.647415296E0,8.254116726E-1,-1.395885327E0,2.311661185E0
1.014358404E1,-1.597773750E0,1.042561767E0,-1.222979652E0,2.266163106E0
1.015354304E1,-1.592901996E0,1.275368950E0,-9.738859266E-1,2.261052084E0
1.016350104E1,-1.549859619E0,1.384693172E0,-7.180275571E-1,2.198864159E0
1.017346004E1,-1.501101149E0,1.495704900E0,-4.826192397E-1,2.173329045E0
1.018341804E1,-1.457351843E0,1.568088752E0,-3.339520276E-1,2.166633491E0
1.019337704E1,-1.416836632E0,1.553713665E0,-2.581569099E-1,2.118512965E0
1.020333604E1,-1.455254593E0,1.461303684E0,-2.785443968E-1,2.081048142E0
1.021329404E1,-1.510350129E0,1.366666206E0,-2.210060406E-1,2.048847896E0
1.022325304E1,-1.624645799E0,1.277124869E0,-6.092564821E-2,2.067422027E0
1.023321204E1,-1.753455867E0,1.129364560E0,-5.125669241E-3,2.085688869E0
1.024317100E1,-1.871221422E0,8.703858241E-1,8.176921785E-2,2.065363720E0
1.025313000E1,-2.120310323E0,6.770762900E-1,3.361394709E-1,2.251030411E0
1.026308900E1,-2.394350464E0,6.008081326E-1,5.069343013E-1,2.520092645E0
1.027304700E1,-2.585659811E0,3.467656159E-1,1.699189174E-1,2.614336530E0
1.028300600E1,-2.815730790E0,7.161114246E-2,-1.920377648E-1,2.823180218E0
1.029296500E1,-2.934104163E0,-1.342213735E-1,-2.135368073E-1,2.944924547E0
1.030292300E1,-2.809694417E0,-3.229659864E-1,-2.746144831E-2,2.828328814E0
1.031288200E1,-2.650532038E0,-3.392946285E-1,1.865542459E-1,2.678664484E0
1.032284100E1,-2.436841741E0,-2.255390945E-1,2.173293114E-1,2.456887784E0
1.033279900E1,-2.007224003E0,-1.632025132E-1,-4.823719025E-2,2.014425498E0
1.034275800E1,-1.477550319E0,-9.610892951E-2,-3.611012346E-1,1.524068887E0
1.035271700E1,-1.005202298E0,1.485303873E-1,-2.184057838E-1,1.039323829E0
1.036267500E1,-5.989622397E-1,4.049354714E-1,4.738694662E-1,8.644540309E-1
1.037263400E1,-2.284708153E-1,4.623203382E-1,1.436419396E0,1.526184684E0
1.038259200E1,-1.014024504E-1,2.926724392E-1,2.411637318E0,2.431446929E0
1.039255100E1,-2.857298573E-1,4.434645295E-2,3.172026199E0,3.185177917E0
1.040251000E1,-7.175110287E-1,-2.974960998E-1,3.641585682E0,3.723502690E0
1.041246800E1,-1.353240414E0,-7.144861910E-1,3.678043656E0,3.983686141E0
1.042242700E1,-1.880595970E0,-1.113185607E0,3.207905883E0,3.881556847E0
1.043238600E1,-2.231920221E0,-1.438654202E0,2.399002655E0,3.578604131E0
1.044234400E1,-2.351477948E0,-1.579576484E0,1.373106914E0,3.148004607E0
1.045230300E1,-2.258335603E0,-1.454656277E0,3.932275915E-1,2.714909302E0
1.046226200E1,-2.038371098E0,-1.094754014E0,-2.044508189E-1,2.322766286E0
1.047222000E1,-1.698218975E0,-6.965317306E-1,-4.466775745E-1,1.889080463E0
1.048217900E1,-1.335689119E0,-4.579398966E-1,-4.085946590E-1,1.469940124E0
1.049213800E1,-1.090341997E0,-4.637736636E-1,-6.483977437E-2,1.186649012E0
1.050209600E1,-9.752685007E-1,-5.383975840E-1,4.566915160E-1,1.203988267E0
1.051205500E1,-9.509910075E-1,-6.625205237E-1,1.002616221E0,1.532500123E0
1.052201400E1,-9.949935711E-1,-7.677335680E-1,1.423453780E0,1.898854313E0
1.053197200E1,-9.605914047E-1,-8.420721442E-1,1.616945162E0,2.060663243E0
1.054193100E1,-7.845055752E-1,-9.377863866E-1,1.592180450E0,2.007468777E0
1.055188900E1,-6.371309631E-1,-9.942240044E-1,1.311453872E0,1.764746014E0
1.056184800E1,-5.140670273E-1,-9.834373534E-1,8.337690979E-1,1.388014714E0
1.057180700E1,-4.349427974E-1,-9.579575264E-1,3.753257561E-1,1.117017136E0
1.058176500E1,-3.769484681E-1,-8.839385006E-1,3.661994219E-2,9.616540129E-1
1.059172400E1,-3.208685902E-1,-8.342418453E-1,-1.733553261E-1,9.104768958E-1
1.060168300E1,-2.468273449E-1,-8.343546966E-1,-3.881451917E-1,9.527477041E-1
1.061164100E1,-1.706927233E-1,-8.361772737E-1,-6.172613204E-1,1.053252095E0
1.062160000E1,-7.467577782E-2,-8.182508799E-1,-7.653163290E-1,1.122862439E0
1.063155900E1,3.471532132E-2,-8.233943832E-1,-8.784903574E-1,1.204545048E0
1.064151700E1,1.150921709E-1,-8.434921405E-1,-9.718645442E-1,1.291992992E0
1.065147600E1,1.571972765E-1,-8.262457779E-1,-1.049203911E0,1.344701423E0
1.066143500E1,2.047854624E-1,-7.213362041E-1,-1.009523537E0,1.257537584E0
1.067139300E1,2.809038945E-1,-5.947448623E-1,-8.372610551E-1,1.064722745E0
1.068135200E1,3.700949466E-1,-5.230147290E-1,-6.847492987E-1,9.377613120E-1
1.069131100E1,5.600922524E-1,-4.321153763E-1,-4.749359983E-1,8.520511910E-1
1.070126900E1,7.992011630E-1,-3.771281603E-1,-2.404492021E-1,9.158405795E-1
1.071122800E1,9.412951545E-1,-3.699115267E-1,-2.122305393E-2,1.011593557E0
1.072118700E1,1.016027395E0,-3.827637067E-1,2.249143195E-1,1.108785900E0
1.073114500E1,1.109028529E0,-4.733829778E-1,5.395331132E-1,1.321034330E0
1.074110400E1,1.218238511E0,-5.593958125E-1,9.138110483E-1,1.622368446E0
1.075106200E1,1.217305953E0,-6.982926196E-1,1.174807951E0,1.830196734E0
1.076102100E1,1.107793378E0,-8.636100706E-1,1.240155264E0,1.873769890E0
1.077098000E1,9.355652487E-1,-9.552938274E-1,1.228086026E0,1.815506518E0
1.078093800E1,7.139768254E-1,-8.929379502E-1,9.309942609E-1,1.474398658E0
1.079089700E1,5.249857158E-1,-8.684878179E-1,1.012386918E-1,1.019867817E0
1.080085600E1,4.571776024E-1,-8.503137946E-1,-5.494575924E-1,1.110832370E0
1.081081400E1,6.175015678E-1,-8.706837398E-1,-7.796648115E-1,1.321845520E0
1.082077300E1,7.477599909E-1,-8.071911639E-1,-9.371864623E-1,1.445344611E0
1.083073200E1,7.036840448E-1,-6.049336356E-1,-1.044329088E0,1.397046593E0
1.084069000E1,6.952780876E-1,-3.194760758E-1,-9.917409843E-1,1.252607984E0
1.085064900E1,8.113295308E-1,-5.120172858E-2,-7.812008750E-1,1.127453783E0
1.086060700E1,9.786424904E-1,9.190010369E-2,-4.799768829E-1,1.093875935E0
1.087056600E1,1.085118022E0,1.457629001E-1,-1.887855434E-1,1.111021118E0
1.088052500E1,1.134990970E0,1.145077783E-1,8.024718761E-2,1.143571662E0
1.089048300E1,1.227438154E0,6.770549476E-2,4.503174663E-1,1.309188404E0
1.090044200E1,1.265720460E0,4.725134969E-3,8.302666157E-1,1.513741478E0
1.091040100E1,1.121334360E0,2.066318303E-2,1.340027461E0,1.747424193E0
1.092035900E1,9.160313091E-1,6.348029673E-2,1.805752341E0,2.025804685E0
1.093031800E1,6.035510615E-1,-2.521904111E-2,1.979875991E0,2.069980392E0
1.094027700E1,2.645616576E-1,-2.497208396E-1,1.875580375E0,1.910537911E0
1.095023500E1,-2.031048629E-2,-5.041141891E-1,1.379638254E0,1.468994671E0
1.096019400E1,-1.715929753E-1,-6.257754511E-1,6.309496522E-1,9.050616155E-1
1.097015300E1,-2.481485964E-1,-5.557430568E-1,-4.271566451E-2,6.101251503E-1
1.098011100E1,-2.178141917E-1,-3.600832343E-1,-5.220820981E-1,6.705763752E-1
1.099007000E1,2.416148080E-2,-1.834479126E-1,-7.637872821E-1,7.858803510E-1
1.100002900E1,3.645555503E-1,-9.062862664E-2,-8.280575377E-1,9.092819051E-1
1.100998700E1,5.795976502E-1,-6.056721389E-2,-8.897099948E-1,1.063572141E0
1.101994600E1,6.499853358E-1,-2.359526932E-2,-9.485926259E-1,1.150158964E0
1.102990400E1,6.900663181E-1,4.556355089E-2,-9.347253692E-1,1.162746351E0
1.103986300E1,7.325356686E-1,7.175293744E-2,-9.944920993E-1,1.237243519E0
1.104982200E1,6.651831995E-1,1.148305446E-1,-1.078707207E0,1.272503038E0
1.105978000E1,5.974666681E-1,1.487593058E-1,-1.211431986E0,1.358919868E0
1.106973900E1,5.174060067E-1,2.115601560E-1,-1.299249564E0,1.414396021E0
1.107969800E1,4.512844130E-1,2.780169779E-1,-1.370687921E0,1.469604177E0
1.108965600E1,3.854156018E-1,2.815773475E-1,-1.337140106E0,1.419779790E0
1.109961500E1,3.046401182E-1,2.855534542E-1,-1.191359664E0,1.262412067E0
1.110957400E1,2.048886657E-1,2.448810992E-1,-1.074802437E0,1.121225399E0
1.111953200E1,1.686081909E-1,2.606188801E-1,-9.395516610E-1,9.894989876E-1
1.112949100E1,1.212831481E-1,3.033137870E-1,-8.911022168E-1,9.490900991E-1
1.113945000E1,1.863996419E-2,3.402424622E-1,-1.027026007E0,1.082078925E0
1.114940800E1,-1.165438336E-1,3.693303135E-1,-1.260210044E0,1.318376540E0
1.115936700E1,-1.639281161E-1,4.189951015E-1,-1.398577386E0,1.469165758E0
1.116932500E1,-9.834397288E-2,4.500800693E-1,-1.436736315E0,1.508792512E0
1.117928400E1,-3.745164923E-2,5.178797042E-1,-1.412364535E0,1.504784235E0
1.118924300E1,-1.107003090E-2,5.618577826E-1,-1.355603274E0,1.467469574E0
1.119920100E1,-6.802519128E-2,5.705426520E-1,-1.183019781E0,1.315173808E0
1.120916000E1,-1.426442511E-1,6.529632497E-1,-9.573038077E-1,1.167535425E0
1.121911900E1,-1.415307677E-1,6.839751273E-1,-7.502141404E-1,1.025023995E0
1.122907700E1,-1.566295484E-1,6.754481328E-1,-5.481905007E-1,8.838980827E-1
1.123903600E1,-1.831696217E-1,6.153913808E-1,-4.182700467E-1,7.662946521E-1
1.124899400E1,-1.798215426E-1,5.210249215E-1,-3.955606306E-1,6.784327295E-1
1.125895200E1,-1.268583220E-1,4.958737081E-1,-3.763519424E-1,6.353145306E-1
1.126891100E1,-3.858486246E-2,4.773128915E-1,-3.406704783E-1,5.876842373E-1
1.127887000E1,3.055727491E-2,4.447567642E-1,-3.723062539E-1,5.808220666E-1
1.128882800E1,1.205942547E-1,4.514132345E-1,-2.574727857E-1,5.334876924E-1
1.129878700E1,3.001864585E-1,4.465115136E-1,1.349128067E-1,5.546944267E-1
1.130874500E1,4.877678593E-1,4.810036540E-1,6.946562362E-1,9.756173872E-1
1.131870400E1,4.945866629E-1,5.133685774E-1,9.506391513E-1,1.188224751E0
1.132866300E1,4.152093582E-1,3.454242647E-1,5.380309635E-1,7.623608407E-1
1.133862100E1,2.478783819E-1,1.162543416E-1,-1.109702128E-1,2.954202977E-1
1.134858000E1,1.702067832E-1,-5.523864627E-2,-4.869379932E-1,5.187776655E-1
1.135853900E1,2.321350827E-1,-1.446829194E-1,-5.543265688E-1,6.181405897E-1
1.136849700E1,3.282409424E-1,-1.510932219E-1,-4.316081303E-1,5.629003963E-1
1.137845600E1,3.716152592E-1,-1.471177000E-1,-3.613175815E-1,5.387874472E-1
1.138841500E1,2.667620014E-1,-2.351574719E-1,-4.064311892E-1,5.400438070E-1
1.139837300E1,4.038814377E-2,-3.671595347E-1,-4.035830104E-1,5.470983206E-1
1.140833200E1,-1.106384199E-1,-5.258219773E-1,-3.570941377E-1,6.451711671E-1
1.141829100E1,-1.553980517E-1,-6.742582244E-1,-1.926862210E-1,7.182622692E-1
1.142824900E1,-6.846194174E-2,-8.344871360E-1,1.655112863E-1,8.534927085E-1
1.143820800E1,9.377526920E-2,-1.010077560E0,7.432547843E-1,1.257568349E0
1.144816600E1,2.680616913E-1,-1.091415254E0,1.434814335E0,1.822563168E0
1.145812500E1,2.734849290E-1,-1.086515872E0,2.013850653E0,2.304540127E0
1.146808400E1,2.082410937E-2,-1.094905749E0,2.422227210E0,2.658277055E0
1.147804200E1,-3.201157612E-1,-1.226272512E0,2.572360904E0,2.867622534E0
1.148800100E1,-7.027215931E-1,-1.351856963E0,2.299577769E0,2.758512788E0
1.149796000E1,-1.040621734E0,-1.448175515E0,1.585787689E0,2.386383982E0
1.150791800E1,-1.169547942E0,-1.484761251E0,6.844148380E-1,2.010169652E0
1.151787700E1,-1.104561841E0,-1.334868755E0,-4.285658240E-2,1.733138235E0
1.152783600E1,-9.177750219E-1,-1.148909463E0,-5.680178243E-1,1.576371845E0
1.153779400E1,-6.816941285E-1,-9.972417524E-1,-8.396508121E-1,1.471125924E0
1.154775300E1,-3.974215435E-1,-8.904967377E-1,-7.852091414E-1,1.251991102E0
1.155771100E1,-1.824200452E-1,-8.538767955E-1,-4.482364422E-1,9.814777445E-1
1.156767000E1,-1.455451918E-1,-9.136309540E-1,8.510739326E-2,9.290576900E-1
1.157762900E1,-2.218326541E-1,-1.107925159E0,5.918569225E-1,1.275540082E0
1.158758700E1,-3.857652287E-1,-1.293521631E0,9.831882620E-1,1.669931789E0
1.159754600E1,-5.992995875E-1,-1.389406613E0,1.175310811E0,1.915976574E0
1.160750500E1,-7.259801359E-1,-1.395084259E0,9.940693456E-1,1.860505606E0
1.161746300E1,-6.637288508E-1,-1.420258276E0,4.528107190E-1,1.631780349E0
1.162742200E1,-5.455497520E-1,-1.475885178E0,-1.655305821E-1,1.582170017E0
1.163738100E1,-4.912208228E-1,-1.392115628E0,-7.072423679E-1,1.636910378E0
1.164733900E1,-4.517840941E-1,-1.252247013E0,-1.056072636E0,1.699270685E0
1.165729800E1,-3.319639377E-1,-1.172696521E0,-1.162819405E0,1.684507689E0
1.166725700E1,-1.841888645E-1,-1.186867833E0,-1.254072806E0,1.736455987E0
1.167721500E1,-5.352810272E-2,-1.192431459E0,-1.313359480E0,1.774731294E0
1.168717400E1,3.248560212E-2,-1.195528144E0,-1.274869598E0,1.748037571E0
1.169713200E1,1.653308266E-1,-1.147285984E0,-1.259706014E0,1.711858245E0
1.170709100E1,2.951261319E-1,-1.012821366E0,-1.315038800E0,1.685892523E0
1.171705000E1,4.337916268E-1,-7.834228170E-1,-1.327634872E0,1.601418384E0
1.172700800E1,6.368367751E-1,-5.026658338E-1,-1.315344025E0,1.545433247E0
1.173696700E1,8.676266693E-1,-2.337500471E-1,-1.194887874E0,1.495049214E0
1.174692600E1,1.183390275E0,-3.978357822E-2,-9.823158574E-1,1.538486178E0
1.175688400E1,1.528946760E0,1.008668089E-1,-6.416126347E-1,1.661180026E0
1.176684300E1,1.833017469E0,1.470767695E-1,-2.445709044E-1,1.855100952E0
1.177680200E1,2.016160887E0,1.188209769E-1,1.772764689E-1,2.027424498E0
1.178676000E1,2.274732219E0,2.251657498E-1,7.132386875E-1,2.394538725E0
1.179671900E1,2.570013247E0,4.313988000E-1,1.340908636E0,2.930718169E0
1.180667700E1,2.843957347E0,4.858993815E-1,2.036150764E0,3.531303093E0
1.181663600E1,3.051906847E0,4.502769743E-1,2.603410204E0,4.036660680E0
1.182659500E1,3.130309823E0,4.264896239E-1,2.912499286E0,4.296904127E0
1.183655300E1,3.037612452E0,3.637731197E-1,3.048280989E0,4.318730980E0
1.184651200E1,2.796047308E0,3.642560998E-1,3.048858109E0,4.152842259E0
1.185647100E1,2.652161949E0,3.777061576E-1,2.600632192E0,3.733619255E0
1.186642900E1,2.606521215E0,3.415772353E-1,1.921669883E0,3.256292829E0
1.187638800E1,2.639274978E0,2.775401375E-1,1.436280817E0,3.017565828E0
1.188634700E1,2.741155402E0,2.125571063E-1,1.032177404E0,2.936750527E0
1.189630500E1,2.883764314E0,2.131264789E-1,8.571141064E-1,3.015984766E0
1.190626400E1,3.002821226E0,2.773753922E-1,8.006639171E-1,3.120085757E0
1.191622200E1,3.018861893E0,2.890930662E-1,7.338115311E-1,3.120189304E0
1.192618100E1,2.936139871E0,1.291731799E-1,5.373912781E-1,2.987706886E0
1.193614000E1,2.776924867E0,-1.780692051E-1,3.253168595E-1,2.801580164E0
1.194609800E1,2.659715675E0,-5.198556246E-1,2.589404368E-1,2.722386360E0
1.195605700E1,2.510724819E0,-7.461361460E-1,5.696345794E-1,2.680474178E0
1.196601600E1,2.296884834E0,-8.056530538E-1,1.300780950E0,2.759852870E0
1.197597400E1,1.992674084E0,-8.589033544E-1,2.195825359E0,3.087088270E0
1.198593300E1,1.526772619E0,-9.585323077E-1,3.154293932E0,3.633096341E0
1.199589200E1,1.028081722E0,-1.152971524E0,3.839719169E0,4.138808846E0
1.200585000E1,6.322521926E-1,-1.450335038E0,3.892799023E0,4.202035078E0
1.201580900E1,4.061140143E-1,-1.711292326E0,3.228261795E0,3.676292186E0
1.202576700E1,3.436155381E-1,-1.711300073E0,2.229255061E0,2.831289053E0
1.203572600E1,3.976876283E-1,-1.493333269E0,1.125156904E0,1.911590375E0
1.204568500E1,4.140656794E-1,-1.089107211E0,6.073093593E-2,1.166744681E0
1.205564300E1,2.802729799E-1,-7.536214592E-1,-8.036313790E-1,1.136803255E0
1.206560200E1,-9.229764126E-2,-3.914912608E-1,-1.144122933E0,1.212766073E0
1.207556100E1,-5.072116055E-1,-1.588477993E-1,-1.217682660E0,1.328626093E0
1.208551900E1,-7.533488327E-1,-8.590319932E-2,-1.225305090E0,1.440932471E0
1.209547800E1,-5.624059591E-1,-1.067950085E-1,-1.281750602E0,1.403777134E0
1.210543700E1,-2.106354189E-1,-2.109761654E-1,-1.413815814E0,1.444906010E0
1.211539500E1,4.446108761E-1,-2.788975686E-1,-1.693603329E0,1.773063710E0
1.212535400E1,9.987966733E-1,-2.636307809E-1,-1.783915329E0,2.061419386E0
1.213531300E1,1.344513153E0,-2.802995847E-1,-1.718026564E0,2.199522391E0
1.214527100E1,1.496547922E0,-3.293700032E-1,-1.618523911E0,2.228847220E0
1.215523000E1,1.426249480E0,-3.274959706E-1,-1.442134464E0,2.054554210E0
1.216518800E1,1.289196738E0,-3.855594067E-1,-1.259633508E0,1.843193116E0
1.217514700E1,1.025645626E0,-4.365411338E-1,-1.091380463E0,1.560009111E0
1.218510600E1,7.575174589E-1,-4.494918394E-1,-9.604203737E-1,1.303181840E0
1.219506400E1,3.552733878E-1,-3.834583560E-1,-7.272135329E-1,8.955998064E-1
1.220502300E1,-4.807193331E-2,-2.725467615E-1,-6.247282147E-1,6.832847066E-1
1.221498200E1,-2.718978302E-1,-1.320361228E-1,-6.845230114E-1,7.482871915E-1
1.222494000E1,-3.765688010E-1,-2.842433855E-2,-8.637401712E-1,9.426871635E-1
1.223489900E1,-3.519068534E-1,1.157438797E-1,-1.020979986E0,1.086110129E0
1.224485842E1,-9.357869312E-2,3.771085721E-1,-9.910738170E-1,1.064516396E0
1.225481642E1,1.408520430E-1,6.538210362E-1,-9.154365742E-1,1.133730729E0
1.226477542E1,3.208818926E-1,8.572512236E-1,-7.718049842E-1,1.197300206E0
1.227473342E1,6.394211713E-1,8.898690391E-1,-6.384598160E-1,1.268210266E0
1.228469242E1,8.151951981E-1,9.526871386E-1,-6.028584588E-1,1.391256381E0
1.229465142E1,9.013392296E-1,1.059508167E0,-6.839780509E-1,1.550095461E0
1.230460942E1,9.782159360E-1,1.168505676E0,-8.342070544E-1,1.737300590E0
1.231456842E1,8.481377533E-1,1.307662099E0,-8.798106587E-1,1.789800159E0
1.232452742E1,7.830417247E-1,1.451744071E0,-1.012218518E0,1.935278150E0
1.233448542E1,7.352087232E-1,1.554439597E0,-1.151438384E0,2.069450332E0
1.234444442E1,6.426024221E-1,1.679002539E0,-1.246980718E0,2.187909576E0
1.235440342E1,4.192067707E-1,1.746767383E0,-1.310934055E0,2.223843228E0
1.236436142E1,9.874105364E-2,1.884088950E0,-1.230872809E0,2.252684807E0
1.237432042E1,-1.776604848E-1,1.922048344E0,-1.059039513E0,2.201680670E0
1.238427842E1,-4.478908718E-1,1.970854760E0,-7.789871192E-1,2.166032237E0
1.239423742E1,-6.757954574E-1,1.740174940E0,-4.334377241E-1,1.916448951E0
1.240419642E1,-8.419590005E-1,1.468030905E0,-5.369790494E-2,1.693190232E0
1.241415442E1,-6.684361517E-1,1.134617406E0,2.784075719E-1,1.345984518E0
1.242411342E1,-3.612775281E-1,7.370805632E-1,5.140708280E-1,9.685442814E-1
1.243407242E1,-1.843232408E-1,5.511317964E-1,6.947193861E-1,9.057352480E-1
1.244403042E1,2.399024874E-2,4.338737802E-1,8.555236638E-1,9.595534005E-1
1.245398942E1,3.149950621E-1,3.967410372E-1,9.187314802E-1,1.049139110E0
1.246394842E1,2.821147066E-1,4.655598418E-1,1.231343510E0,1.346306619E0
1.247390642E1,3.147569342E-1,5.252084582E-1,1.808102337E0,1.908965665E0
1.248386542E1,4.435979922E-1,5.331666648E-1,2.378979449E0,2.478021205E0
1.249382342E1,5.382113501E-1,4.886142437E-1,3.022021728E0,3.108219854E0
1.250378242E1,7.751541232E-1,3.455061257E-1,3.725174553E0,3.820623490E0
1.251374142E1,1.026021456E0,1.042482537E-1,4.220958799E0,4.345121507E0
1.252369942E1,1.131592349E0,-2.152187589E-1,4.399998788E0,4.548275464E0
1.253365842E1,1.125453358E0,-6.527393013E-1,4.093532767E0,4.295314234E0
1.254361742E1,1.049738493E0,-9.963371882E-1,3.466528232E0,3.756521886E0
1.255357542E1,1.001666194E0,-1.210667755E0,2.702626344E0,3.126218280E0
1.256353442E1,1.065050012E0,-1.190485505E0,1.930597411E0,2.505752109E0
1.257349342E1,1.263162742E0,-1.024920132E0,1.215461302E0,2.030612609E0
1.258345142E1,1.486807338E0,-6.992299283E-1,6.571071714E-1,1.769550335E0
1.259341042E1,1.703896767E0,-3.411886878E-1,3.672443193E-1,1.776103123E0
1.260336842E1,1.868344738E0,-1.029566038E-1,3.389619219E-1,1.901632800E0
1.261332742E1,1.971397382E0,-1.075446215E-1,4.065954959E-1,2.015761241E0
1.262328642E1,1.957036474E0,-3.704086863E-1,3.966002655E-1,2.030883090E0
1.263324442E1,1.753301208E0,-8.146916798E-1,3.169091481E-1,1.959137327E0
1.264320342E1,1.506844869E0,-1.245962572E0,1.814812016E-1,1.963654658E0
1.265316242E1,1.267601509E0,-1.575581667E0,-2.381395519E-2,2.022334858E0
1.266312042E1,1.049163566E0,-1.779653147E0,-3.036371380E-1,2.088086450E0
1.267307942E1,8.922542645E-1,-1.846482729E0,-6.895007461E-1,2.163568215E0
1.268303842E1,8.159220801E-1,-1.762582494E0,-1.136419226E0,2.250305434E0
1.269299642E1,8.656323302E-1,-1.476546790E0,-1.500184452E0,2.275975207E0
1.270295542E1,1.003520931E0,-1.088715740E0,-1.833939428E0,2.357051134E0
1.271291342E1,1.153788234E0,-6.826573111E-1,-2.230288848E0,2.602198424E0
1.272287242E1,1.328650972E0,-3.611944976E-1,-2.470528720E0,2.828301085E0
1.273283142E1,1.526274728E0,4.137635976E-2,-2.540667826E0,2.964155791E0
1.274278942E1,1.773262872E0,1.953288701E-1,-2.506411328E0,3.076477259E0
1.275274842E1,1.959585422E0,1.958986813E-1,-2.429202939E0,3.127199743E0
1.276270742E1,1.984925061E0,1.435637623E-1,-2.281681196E0,3.027640523E0
1.277266542E1,1.974633523E0,5.665571898E-2,-2.098582655E0,2.882088927E0
1.278262442E1,1.936012372E0,-1.133526608E-1,-1.985868802E0,2.775728306E0
1.279258242E1,1.858324803E0,-2.653609720E-1,-1.935762842E0,2.696472751E0
1.280254142E1,1.747401075E0,-2.855832750E-1,-1.795299858E0,2.521521347E0
1.281250042E1,1.617627971E0,-2.159084380E-1,-1.575661481E0,2.268489764E0
1.282245842E1,1.568261976E0,-2.335883716E-1,-1.313819071E0,2.059157523E0
1.283241742E1,1.469781708E0,-1.603955573E-1,-1.061711690E0,1.820224359E0
1.284237642E1,1.413240741E0,-2.815247226E-1,-8.930715591E-1,1.695311880E0
1.285233442E1,1.314476006E0,-5.024737528E-1,-8.316196615E-1,1.634600350E0
1.286229342E1,1.126248579E0,-6.791055661E-1,-8.461049688E-1,1.563813880E0
1.287225242E1,8.583388057E-1,-7.869823095E-1,-9.352370006E-1,1.493571193E0
1.288221042E1,5.892875098E-1,-8.312794997E-1,-1.077755865E0,1.483186799E0
1.289216942E1,3.145123744E-1,-8.087465233E-1,-1.103310537E0,1.403667736E0
1.290212842E1,7.649692968E-2,-7.410395667E-1,-1.001318139E0,1.248050253E0
1.291208642E1,-1.737083517E-1,-6.185915619E-1,-7.305101931E-1,9.728695977E-1
1.292204542E1,-3.489919433E-1,-4.797985429E-1,-3.013614017E-1,6.654477535E-1
1.293200342E1,-4.449751577E-1,-3.440872988E-1,2.758915150E-1,6.265102459E-1
1.294196242E1,-5.261065905E-1,-1.874324977E-1,8.645207745E-1,1.029230419E0
1.295192142E1,-5.566710100E-1,5.607172832E-2,1.245479738E0,1.365374099E0
1.296187942E1,-4.186014377E-1,2.851755778E-1,1.302902904E0,1.397894220E0
1.297183842E1,-2.035943480E-1,5.008420873E-1,1.308226794E0,1.415539049E0
1.298179742E1,6.126610234E-2,6.874540745E-1,1.407446442E0,1.567562480E0
1.299175542E1,3.196519308E-1,8.543239613E-1,1.574497300E0,1.819639672E0
1.300171442E1,3.942486615E-1,8.851918513E-1,1.748377122E0,1.998954522E0
1.301167242E1,2.398735437E-1,8.549515137E-1,1.900019397E0,2.097273258E0
1.302163142E1,-1.054614048E-1,7.189388457E-1,2.061470377E0,2.185784822E0
1.303159042E1,-4.906433737E-1,4.516354287E-1,2.267747866E0,2.363765188E0
1.304154842E1,-8.397538693E-1,1.398120426E-1,2.597860612E0,2.733791090E0
1.305150742E1,-1.153880181E0,-1.752268736E-1,2.930290024E0,3.154162893E0
1.306146642E1,-1.423069764E0,-4.308284041E-1,3.194639136E0,3.523699742E0
1.307142442E1,-1.581368363E0,-6.704164575E-1,3.467612890E0,3.869692918E0
1.308138342E1,-1.634751250E0,-9.235905164E-1,3.791288436E0,4.230756327E0
1.309134242E1,-1.532944501E0,-1.083807149E0,4.016902083E0,4.433966522E0
1.310130042E1,-1.345856989E0,-1.152837330E0,3.897107252E0,4.281099144E0
1.311125942E1,-1.140294907E0,-1.188424362E0,3.300474324E0,3.688598067E0
1.312121742E1,-8.900457712E-1,-1.102353640E0,2.415712827E0,2.800541642E0
1.313117642E1,-5.421398020E-1,-8.631051636E-1,1.510339896E0,1.822084710E0
1.314113542E1,-1.256889702E-1,-5.850554413E-1,5.514707887E-1,8.137614008E-1
1.315109342E1,4.251004717E-1,-2.862995589E-1,-3.179125303E-1,6.031137748E-1
1.316105242E1,1.019330048E0,7.236601800E-2,-8.203438908E-1,1.310433015E0
1.317101142E1,1.511818949E0,3.917520466E-1,-1.067616209E0,1.891790308E0
1.318096942E1,1.927183368E0,5.534893937E-1,-1.303297591E0,2.391436985E0
1.319092842E1,2.140943247E0,6.598762666E-1,-1.498434965E0,2.695251754E0
1.320088742E1,2.098054505E0,7.654211403E-1,-1.631938008E0,2.766030349E0
1.321084542E1,1.977472639E0,7.942180927E-1,-1.746346384E0,2.755159906E0
1.322080442E1,1.812243627E0,7.597120652E-1,-1.935332487E0,2.758061134E0
1.323076242E1,1.753374737E0,7.148560274E-1,-2.029510666E0,2.775654094E0
1.324072142E1,1.736241372E0,6.825136158E-1,-2.095235124E0,2.805417823E0
1.325068112E1,1.647142084E0,6.939364439E-1,-2.185332531E0,2.823172525E0
1.326063913E1,1.497025932E0,8.100229704E-1,-2.260625373E0,2.829779308E0
1.327059812E1,1.351537705E0,1.025422993E0,-2.117202528E0,2.713059717E0
1.328055712E1,1.245635274E0,1.186877773E0,-1.929092923E0,2.584895663E0
1.329051513E1,1.047865557E0,1.223750608E0,-1.801475687E0,2.416795901E0
1.330047412E1,8.319968800E-1,1.188766424E0,-1.751389022E0,2.274367588E0
1.331043212E1,5.929724982E-1,1.132730218E0,-1.730655380E0,2.151711453E0
1.332039113E1,4.509353708E-1,1.100303021E0,-1.753156051E0,2.118387497E0
1.333035012E1,3.587644679E-1,1.121592734E0,-1.780828584E0,2.134954952E0
1.334030812E1,2.913813740E-1,1.183552462E0,-1.817592368E0,2.188456431E0
1.335026713E1,2.654664411E-1,1.261704300E0,-1.882045641E0,2.281329868E0
1.336022612E1,2.931263293E-1,1.384022789E0,-1.870717245E0,2.345426430E0
1.337018413E1,2.740560740E-1,1.501020311E0,-1.864836116E0,2.409519132E0
1.338014312E1,1.863611417E-1,1.583285666E0,-1.886437485E0,2.469852295E0
1.339010212E1,5.073563240E-2,1.643176357E0,-1.809276457E0,2.444603024E0
1.340006013E1,-5.655865520E-2,1.690797543E0,-1.673560243E0,2.379663653E0
1.341001912E1,-2.035119753E-1,1.659200943E0,-1.606706688E0,2.318592520E0
1.341997712E1,-3.370474704E-1,1.599687982E0,-1.544350811E0,2.248915753E0
1.342993613E1,-5.023028679E-1,1.540580818E0,-1.337931234E0,2.101370366E0
1.343989512E1,-6.674680721E-1,1.429476412E0,-1.054444771E0,1.897569555E0
1.344985312E1,-8.248452967E-1,1.278888682E0,-8.090675354E-1,1.723518582E0
1.345981213E1,-1.029639274E0,1.104164815E0,-5.908570486E-1,1.621249217E0
1.346977112E1,-1.308020387E0,9.333369479E-1,-4.144091302E-1,1.659448739E0
1.347972912E1,-1.646426239E0,8.542972103E-1,-2.584825999E-1,1.872793726E0
1.348968813E1,-1.949471639E0,8.973090363E-1,-2.534235889E-1,2.160978180E0
1.349964712E1,-2.078325853E0,9.124378297E-1,-4.782864529E-1,2.319642015E0
1.350960513E1,-1.956875822E0,8.040538403E-1,-8.370815456E-1,2.275207919E0
1.351956412E1,-1.761896761E0,6.488757536E-1,-9.552795017E-1,2.106627368E0
1.352952212E1,-1.660336911E0,6.339709085E-1,-5.679663688E-1,1.865803732E0
1.353948113E1,-1.669680323E0,6.493888468E-1,9.964240193E-2,1.794287286E0
1.354944012E1,-1.785946213E0,5.301723057E-1,6.397818714E-1,1.969773437E0
1.355939812E1,-1.961222057E0,2.749249703E-1,8.588109684E-1,2.158594908E0
1.356935713E1,-2.086010849E0,-1.052864268E-1,6.814666718E-1,2.197026016E0
1.357931612E1,-1.954588245E0,-5.064966372E-1,2.818129903E-1,2.038718375E0
1.358927412E1,-1.552930723E0,-8.766157401E-1,-1.607680249E-1,1.790501422E0
1.359923313E1,-1.061225056E0,-1.064336506E0,-4.702079397E-1,1.574835332E0
1.360919112E1,-6.264886652E-1,-9.922803900E-1,-5.223615950E-1,1.284511602E0
1.361915012E1,-3.871401649E-1,-7.790210330E-1,1.315798938E-2,8.700140286E-1
1.362910913E1,-4.280877411E-1,-5.983908936E-1,9.563091964E-1,1.206589431E0
1.363906712E1,-6.327138302E-1,-5.894782752E-1,1.976675225E0,2.157557965E0
1.364902613E1,-9.231804074E-1,-7.127077603E-1,2.780783152E0,3.015455082E0
1.365898512E1,-1.328161560E0,-9.386263391E-1,3.138339804E0,3.534714877E0
1.366894312E1,-1.708045221E0,-1.249679793E0,2.894405662E0,3.585624380E0
1.367890213E1,-1.846259512E0,-1.529149073E0,2.200587916E0,3.254160145E0
1.368886112E1,-1.738929483E0,-1.664622920E0,1.225005128E0,2.701015138E0
1.369881912E1,-1.460160699E0,-1.515409871E0,3.494617671E-1,2.133227571E0
1.370877813E1,-1.046425680E0,-1.118378227E0,-1.620684457E-1,1.540143741E0
1.371873612E1,-6.470241597E-1,-6.723339057E-1,-3.349659348E-1,9.914006866E-1
1.372869512E1,-3.471335885E-1,-3.047441621E-1,-2.170568311E-1,5.103767242E-1
1.373865413E1,-1.418504185E-1,-4.782101467E-2,1.059392685E-1,1.833889835E-1
1.374861212E1,-1.336384792E-2,2.507432252E-3,4.303334373E-1,4.305481935E-1
1.375857112E1,7.022144202E-2,-1.960165027E-1,5.159378439E-1,5.563680248E-1
1.376853013E1,5.775974639E-2,-4.653582591E-1,3.186574656E-1,5.669542115E-1
1.377848812E1,-1.401941216E-2,-5.361266716E-1,-2.367069840E-2,5.368320537E-1
1.378844712E1,1.170250777E-2,-4.459900881E-1,-4.193009108E-1,6.122559605E-1
1.379840513E1,3.080381911E-1,-3.644731776E-1,-8.039319259E-1,9.348982650E-1
1.380836412E1,7.635093932E-1,-2.310400088E-1,-1.097515361E0,1.356785188E0
1.381832313E1,1.157855484E0,-9.465268046E-2,-1.367568431E0,1.794388995E0
1.382828112E1,1.357051922E0,2.555657163E-2,-1.562022851E0,2.069337682E0
1.383824012E1,1.317943112E0,1.299309790E-1,-1.585895278E0,2.066136476E0
1.384819913E1,1.188542330E0,1.720133901E-1,-1.529180794E0,1.944380461E0
1.385815712E1,1.044677582E0,1.814279920E-1,-1.444838802E0,1.792156949E0
1.386811612E1,1.022483671E0,1.793007749E-1,-1.419149644E0,1.758296715E0
1.387807513E1,1.052150616E0,1.884069362E-1,-1.500212519E0,1.842052033E0
1.388803312E1,1.146090813E0,8.773776323E-2,-1.814696242E0,2.148102539E0
1.389799212E1,1.282432972E0,-1.523699614E-1,-2.478171616E0,2.794491991E0
1.390795013E1,1.324014422E0,-4.058306801E-1,-3.287393517E0,3.567165383E0
1.391790912E1,1.341212984E0,-5.468944654E-1,-3.838977157E0,4.103131906E0
1.392786812E1,1.375976874E0,-3.663330308E-1,-3.716918870E0,3.980326385E0
1.393782613E1,1.441009460E0,-2.936383992E-2,-2.910349849E0,3.247692526E0
1.394778512E1,1.994238653E0,2.680965918E-1,-1.507961249E0,2.514519977E0
1.395774413E1,2.464489131E0,5.261222318E-1,7.097525775E-2,2.521021374E0
1.396770213E1,2.844170770E0,5.432168591E-1,9.081076741E-1,3.034641902E0
1.397766112E1,2.960798164E0,2.478237104E-1,8.118180656E-1,3.080063462E0
1.398761913E1,3.041688546E0,-1.633524942E-1,8.230248392E-2,3.047183445E0
1.399757812E1,2.985856699E0,-4.212527114E-1,-3.468626797E-1,3.035310164E0
1.400753712E1,2.733611617E0,-4.317557725E-1,-3.181885189E-1,2.785729609E0
1.401749513E1,2.561866906E0,-2.457865405E-1,3.440969467E-2,2.573860349E0
1.402745412E1,2.371803892E0,-1.032214826E-1,9.196155792E-1,2.545938175E0
1.403741312E1,2.208271450E0,1.780377764E-1,2.014548225E0,2.994422281E0
1.404737113E1,2.018313248E0,5.019323006E-1,3.161605875E0,3.784346193E0
1.405733012E1,1.825798789E0,2.186789949E-1,3.989866896E0,4.393222003E0
1.406728812E1,1.663293994E0,-3.501445757E-1,3.967898322E0,4.316638186E0
1.407724713E1,1.449815221E0,-1.004483090E0,3.645007473E0,4.049324626E0
1.408720612E1,1.146680505E0,-1.671727287E0,3.397536349E0,3.956362161E0
1.409716412E1,8.091107317E-1,-1.977437117E0,3.050974216E0,3.724696148E0
1.410712313E1,4.877870820E-1,-1.944905694E0,2.761839927E0,3.412968529E0
1.411708212E1,3.112646116E-1,-1.749248649E0,2.361799745E0,2.955478731E0
1.412704013E1,3.900750652E-1,-1.465975317E0,1.887982319E0,2.421924735E0
1.413699912E1,8.130041002E-1,-1.269469694E0,1.626008347E0,2.217302892E0
1.414695712E1,1.357606092E0,-1.004157693E0,1.770357975E0,2.446547431E0
1.415691613E1,1.611892145E0,-6.366848937E-1,2.138365940E0,2.752484847E0
1.416687512E1,1.479166489E0,-3.276143767E-1,2.593489233E0,3.003573053E0
1.417683312E1,1.052653769E0,-2.446545196E-1,3.142642186E0,3.323271836E0
1.418679213E1,5.575080389E-1,-5.309039386E-1,3.495381317E0,3.579156990E0
1.419675112E1,8.566339038E-2,-1.070314699E0,3.400190400E0,3.565698603E0
1.420670912E1,-2.416730243E-1,-1.623623706E0,2.880815563E0,3.315668575E0
1.421666813E1,-3.446566714E-1,-2.018636745E0,2.066870865E0,2.909576894E0
1.422662712E1,-3.411096042E-1,-2.356339469E0,9.909416699E-1,2.578886746E0
1.423658512E1,-3.204891059E-1,-2.426629725E0,-1.715309948E-1,2.453704948E0
1.424654388E1,-3.605594900E-1,-2.141598281E0,-1.116477882E0,2.441919164E0
1.425650187E1,-3.462133464E-1,-1.668252287E0,-1.726428428E0,2.425589514E0
1.426646087E1,-1.327487522E-1,-1.263328802E0,-2.084925898E0,2.441421285E0
1.427641988E1,2.076246876E-1,-9.767558862E-1,-2.115762944E0,2.339575369E0
1.428637787E1,5.924455909E-1,-7.489701453E-1,-2.004357113E0,2.220224199E0
1.429633687E1,8.700949252E-1,-6.168726267E-1,-1.964944541E0,2.235755815E0
1.430629588E1,1.034326110E0,-5.231742118E-1,-2.026206989E0,2.334321426E0
1.431625387E1,1.133490502E0,-4.599618638E-1,-2.157309165E0,2.479989610E0
1.432621287E1,1.275136962E0,-4.646690185E-1,-2.282268257E0,2.655304119E0
1.433617088E1,1.442824143E0,-4.648991065E-1,-2.434098812E0,2.867526759E0
1.434612987E1,1.607693113E0,-4.970241478E-1,-2.741181715E0,3.216486801E0
1.435608887E1,1.741740240E0,-4.513601710E-1,-3.107889259E0,3.591150333E0
1.436604688E1,1.800079372E0,-2.736578786E-1,-3.354966865E0,3.817194919E0
1.437600587E1,1.792702378E0,1.744355991E-2,-3.302917290E0,3.758104405E0
1.438596488E1,1.769195841E0,2.444016275E-1,-3.075926040E0,3.556839479E0
1.439592288E1,1.666619598E0,3.445324181E-1,-2.829979870E0,3.302288531E0
1.440588187E1,1.377056416E0,4.304818104E-1,-2.469787293E0,2.860323100E0
1.441583988E1,8.632127523E-1,4.579843354E-1,-2.057923456E0,2.278142853E0
1.442579887E1,2.445766054E-1,4.216988540E-1,-1.679673507E0,1.748985629E0
1.443575787E1,-3.084166521E-1,3.413874932E-1,-1.096960461E0,1.189532893E0
1.444571588E1,-8.059096004E-1,2.661544392E-1,-4.857855070E-1,9.779141211E-1
1.445567487E1,-1.074535146E0,3.077062154E-1,1.195100713E-1,1.124095882E0
1.446563387E1,-1.145784931E0,5.290474476E-1,8.028887826E-1,1.495775620E0
1.447559188E1,-1.064203554E0,8.132339689E-1,1.523696691E0,2.028676982E0
1.448555087E1,-8.930438579E-1,1.060546194E0,1.956868367E0,2.398253399E0
1.449550987E1,-7.634815458E-1,1.309410709E0,2.110963549E0,2.598774246E0
1.450546788E1,-6.622143488E-1,1.553480653E0,2.080993060E0,2.679992929E0
1.451542687E1,-6.468889428E-1,1.709414200E0,1.698789809E0,2.495285360E0
1.452538487E1,-8.485961019E-1,1.922390260E0,1.235302075E0,2.437554280E0
1.453534388E1,-1.152646784E0,2.397402125E0,1.198503792E0,2.917626244E0
1.454530287E1,-1.220450366E0,2.969521333E0,1.626737494E0,3.599143081E0
1.455526088E1,-1.061484599E0,3.469607083E0,2.163931137E0,4.224632626E0
1.456521987E1,-7.695369224E-1,3.863366479E0,2.756310800E0,4.807809985E0
1.457517887E1,-4.139090471E-1,4.075277175E0,3.446526076E0,5.353293075E0
1.458513688E1,-2.585320088E-1,4.057358968E0,3.887089802E0,5.624808239E0
1.459509587E1,-2.515299681E-1,3.796857617E0,3.910806693E0,5.456537737E0
1.460505387E1,-3.355982380E-1,3.343626775E0,3.644485316E0,4.957291540E0
1.461501288E1,-2.835512944E-1,2.717884068E0,3.250732060E0,4.246710971E0
1.462497187E1,-5.689427076E-1,2.287366298E0,2.773206330E0,3.639562300E0
1.463492987E1,-6.393091241E-1,1.820891951E0,1.972317880E0,2.759420496E0
1.464488888E1,-3.746577848E-1,1.270043453E0,1.019670210E0,1.671258856E0
1.465484787E1,-2.726965964E-2,9.534569246E-1,4.344299966E-1,1.048118869E0
1.466480587E1,3.703105992E-1,9.029676792E-1,3.680471420E-1,1.043043273E0
1.467476488E1,7.826055224E-1,8.600149101E-1,4.362075502E-1,1.241923539E0
1.468472287E1,1.257563155E0,6.108176887E-1,3.672723860E-1,1.445493806E0
1.469468188E1,1.706481383E0,2.325382116E-1,1.492531031E-1,1.728707384E0
1.470464087E1,1.953122494E0,-1.188388109E-1,-1.644611263E-1,1.963633775E0
1.471459887E1,1.892639042E0,-3.912509403E-1,-5.094146901E-1,1.998665346E0
1.472455788E1,1.640984674E0,-6.371383452E-1,-6.067486113E-1,1.861966661E0
1.473451687E1,1.318547568E0,-8.687646836E-1,-4.457677478E-1,1.640740275E0
1.474447487E1,8.840744483E-1,-1.092232402E0,-2.393931949E-1,1.425436197E0
1.475443388E1,4.698636849E-1,-1.305519826E0,-9.577446878E-2,1.390800721E0
1.476439287E1,2.197357330E-1,-1.567011987E0,1.451091814E-1,1.588983019E0
1.477435087E1,1.208042063E-1,-1.877060305E0,3.696200430E-1,1.916916279E0
1.478430988E1,1.473714691E-1,-2.017036216E0,5.970855027E-1,2.108711584E0
1.479426787E1,4.231581728E-1,-2.047318068E0,6.521966797E-1,2.189962242E0
1.480422687E1,7.861116591E-1,-1.951386310E0,4.909497678E-1,2.160303623E0
1.481418588E1,1.255818346E0,-1.535597236E0,2.185730141E-1,1.995723617E0
1.482414387E1,1.771359018E0,-1.086651819E0,-3.195871729E-1,2.102536779E0
1.483410288E1,1.987009740E0,-8.005700693E-1,-8.943825048E-1,2.321430638E0
1.484406088E1,1.885257078E0,-5.246051717E-1,-1.402257623E0,2.407432507E0
1.485401987E1,1.558071302E0,-3.646768069E-1,-1.771172492E0,2.386970329E0
1.486397888E1,1.194546981E0,-3.351726338E-1,-1.843367479E0,2.222000641E0
1.487393687E1,8.659603590E-1,-4.200207031E-1,-1.662200857E0,1.920733304E0
1.488389587E1,6.309699713E-1,-5.329848164E-1,-1.293493565E0,1.534705679E0
1.489385488E1,4.836800708E-1,-6.666644454E-1,-8.610030895E-1,1.191517610E0
1.490381287E1,2.116344157E-1,-7.632341355E-1,-5.983607805E-1,9.926485255E-1
1.491377187E1,-2.286324178E-1,-8.105270004E-1,-4.698512596E-1,9.643583395E-1
1.492373088E1,-7.798093839E-1,-7.984568855E-1,-5.177066267E-1,1.230307370E0
1.493368887E1,-1.383731159E0,-8.243796390E-1,-8.084769666E-1,1.802206624E0
1.494364787E1,-1.901565986E0,-9.768308768E-1,-1.137244853E0,2.421461876E0
1.495360588E1,-1.885913428E0,-5.721268966E0,2.435143125E-1,6.029003837E0
1.496356487E1,1.935765473E0,-3.696665401E1,7.272158718E0,3.772485903E1
1.497352387E1,-9.458472119E-1,1.191911349E0,1.205359068E0,1.941177502E0
1.498348188E1,-3.644567762E0,3.208084223E0,9.374823314E-1,4.945053253E0
1.499344087E1,-4.929244310E0,7.764619991E-1,1.503816158E-1,4.992289789E0
1.500339988E1,-5.606240201E0,1.345666808E0,-5.226755905E-1,5.789122397E0
1.501335787E1,-6.227043765E0,4.729073068E-1,-2.134416731E0,6.599655305E0
1.502331687E1,-6.406325244E0,-4.457475749E-1,-4.137573996E0,7.639320166E0
1.503327488E1,-6.136549916E0,-4.588736969E-1,-4.877095333E0,7.851997760E0
1.504323387E1,-6.347806309E0,4.232463196E-1,-2.849027175E0,6.970705720E0
1.505319287E1,-6.126269342E0,-6.377993730E-1,-6.834325057E-1,6.197180333E0
1.506315088E1,-4.059081850E0,-2.962533618E0,9.497983217E-1,5.114182999E0
1.507310987E1,-2.683447477E0,-3.604019953E0,2.381109590E0,5.085226943E0
1.508306887E1,-3.313196111E0,-2.629164850E0,3.163951194E0,5.282079461E0
1.509302688E1,-4.250544833E0,-7.216276878E-1,2.532708011E0,5.000248771E0
1.510298587E1,-3.925983434E0,7.788950256E-1,1.473932208E0,4.265266643E0
1.511294387E1,-2.740181841E0,1.648735597E0,8.052639216E-1,3.297783433E0
1.512290288E1,-1.547969652E0,1.861021977E0,2.828233892E-1,2.437129852E0
1.513286187E1,-1.094078953E0,1.734184175E0,-7.162155050E-1,2.171950312E0
1.514281987E1,-1.452741021E0,1.198998174E0,-2.416865314E0,3.064195007E0
1.515277888E1,-2.316846351E0,6.136930570E-1,-3.789984507E0,4.484236696E0
1.516273787E1,-3.141690844E0,4.880571502E-1,-4.062350151E0,5.158595728E0
1.517269588E1,-2.484119111E0,3.069606954E-1,-3.371729078E0,4.199241551E0
1.518265487E1,-6.773826841E-1,-4.045980871E-3,-1.971491084E0,2.084620052E0
1.519261287E1,7.761991668E-1,-6.024737120E-2,-4.380681342E-1,8.933188582E-1
1.520257188E1,1.735384024E0,3.185405213E-1,1.518814266E-1,1.770901957E0
1.521253087E1,2.411035640E0,8.386316425E-1,8.967523813E-2,2.554297856E0
1.522248887E1,2.603224263E0,1.706684720E0,2.587802231E-2,3.112911654E0
1.523244788E1,2.463833366E0,2.904767805E0,8.271003485E-2,3.809854565E0
1.524240687E1,2.017645496E0,3.851820859E0,-3.470907211E-2,4.348404534E0
1.525236392E1,1.808671271E0,4.525540262E0,-3.813565743E-1,4.888480262E0
1.526232292E1,3.171939075E0,3.585966674E0,-8.561078006E-1,4.863463277E0
1.527228092E1,4.578304075E0,1.061161175E0,-1.822830303E0,5.040797710E0
1.528223992E1,4.155169145E0,-7.512493899E-1,-2.523975779E0,4.919375977E0
1.529219892E1,2.661601110E0,-2.054565108E0,-3.140968713E0,4.601200137E0
1.530215692E1,1.253273492E0,-2.721279839E0,-3.521028959E0,4.623170269E0
1.531211592E1,-2.774585688E-1,-3.068462654E0,-2.917776398E0,4.243331878E0
1.532207492E1,-1.170357050E0,-3.455326720E0,-1.772967002E0,4.056159558E0
1.533203292E1,-1.330008257E0,-3.859400312E0,-6.767871451E-1,4.137865824E0
1.534199192E1,-1.008480393E0,-3.671455598E0,3.190252554E-1,3.820784740E0
1.535194992E1,5.174399936E-1,-2.435896100E0,1.224643185E0,2.775082862E0
1.536190892E1,2.309596388E0,-7.253962183E-1,1.760481443E0,2.993280819E0
1.537186792E1,3.775926046E0,1.073303211E0,1.628811502E0,4.250014612E0
1.538182592E1,4.994227926E0,2.573298213E0,1.154595881E0,5.735613997E0
1.539178492E1,5.567923397E0,3.162919745E0,6.112866354E-1,6.432690232E0
1.540174392E1,5.243977709E0,2.989119446E0,2.796898663E-1,6.042546127E0
1.541170192E1,4.010192403E0,2.588282288E0,6.808515447E-1,4.821245392E0
1.542166092E1,2.168926413E0,1.989059043E0,9.367637086E-1,3.088385324E0
1.543161892E1,4.715071911E-1,1.421016514E0,1.490011466E0,2.112283393E0
1.544157792E1,-1.431199586E-1,8.458707878E-1,1.815118995E0,2.007644809E0
1.545153692E1,2.908989787E-2,3.824485418E-1,1.797639329E0,1.838102355E0
1.546149492E1,3.585582805E-1,1.699747218E-1,1.785968871E0,1.829519132E0
1.547145392E1,6.711609542E-1,8.745347891E-2,1.753339069E0,1.879442212E0
1.548141292E1,8.577362502E-1,1.601493164E-1,1.623671215E0,1.843276293E0
1.549137092E1,9.341675448E-1,3.508987203E-1,1.097334682E0,1.483220253E0
1.550132992E1,9.668949956E-1,5.369376073E-1,2.357106185E-1,1.130817148E0
1.551128792E1,8.633039689E-1,7.071236694E-1,-5.278685027E-1,1.234488875E0
1.552124692E1,6.377721834E-1,9.208569431E-1,-1.040206801E0,1.528646805E0
1.553120592E1,4.436381918E-1,1.127461584E0,-1.240213151E0,1.733814618E0
1.554116392E1,1.024046266E-1,1.390938291E0,-8.847480476E-1,1.651658301E0
1.555112292E1,-1.358422217E-1,1.521490244E0,-4.818754739E-1,1.601745811E0
1.556108192E1,-1.619412687E-1,1.265975106E0,-4.434452337E-1,1.351133457E0
1.557103992E1,-5.642794070E-1,1.111271667E0,-1.378539562E-2,1.246405233E0
1.558099892E1,-7.473978290E-1,1.021998644E0,7.950447428E-1,1.495052135E0
1.559095692E1,-4.975284702E-1,9.831414843E-1,1.445911766E0,1.817900600E0
1.560091592E1,-1.862063366E-1,1.061180032E0,1.720472454E0,2.029975696E0
1.561087492E1,-5.393530190E-2,1.274783352E0,1.463079191E0,1.941283681E0
1.562083292E1,-2.705027211E-1,1.514287059E0,7.964457357E-1,1.732213275E0
1.563079192E1,-7.039421993E-1,1.621029150E0,5.668173909E-2,1.768186343E0
1.564075092E1,-1.244912851E0,1.452951667E0,-4.319145244E-1,1.961485842E0
1.565070892E1,-1.685173691E0,1.047529488E0,-4.453455788E-1,2.033583310E0
1.566066792E1,-1.913042316E0,5.897883969E-1,1.339526939E-1,2.006370997E0
1.567062592E1,-1.914469036E0,1.173213123E-1,6.973126262E-1,2.040882378E0
1.568058492E1,-1.804040861E0,-2.219470768E-1,1.059586812E0,2.103936345E0
1.569054392E1,-1.717058265E0,-4.264370721E-1,1.172697691E0,2.122582751E0
1.570050192E1,-1.664246798E0,-5.120103423E-1,1.014569099E0,2.015247492E0
1.571046092E1,-1.611053216E0,-5.671283897E-1,5.698018098E-1,1.800500257E0
1.572041992E1,-1.619045190E0,-6.045124168E-1,-7.949523568E-2,1.730046844E0
1.573037792E1,-1.691706785E0,-6.270559913E-1,-5.903202742E-1,1.898301632E0
1.574033692E1,-1.781914412E0,-7.141720493E-1,-7.225661659E-1,2.051185645E0
1.575029492E1,-1.761412612E0,-8.358318494E-1,-6.005353600E-1,2.040056859E0
1.576025392E1,-1.635959431E0,-9.671663064E-1,-6.626292819E-1,2.012672723E0
1.577021292E1,-1.456066040E0,-1.049554013E0,-8.370458776E-1,1.980489268E0
1.578017092E1,-1.335823605E0,-1.089265379E0,-8.485912049E-1,1.921205560E0
1.579012992E1,-1.235979767E0,-1.076461877E0,-8.219314098E-1,1.833572305E0
1.580008892E1,-1.234522641E0,-1.098714187E0,-7.515239167E-1,1.815490901E0
1.581004692E1,-1.478941225E0,-1.132658004E0,-6.298913062E-1,1.966454769E0
1.582000592E1,-1.728910864E0,-1.117813824E0,-6.504121095E-1,2.159091576E0
1.582996392E1,-1.733667281E0,-1.077651931E0,-9.888343334E-1,2.268199565E0
1.583992292E1,-1.537876773E0,-1.068452945E0,-1.502693492E0,2.400988213E0
1.584988192E1,-1.458085961E0,-1.031240388E0,-1.724112346E0,2.482344615E0
1.585983992E1,-1.616996033E0,-9.125550663E-1,-1.412996035E0,2.333236103E0
1.586979892E1,-1.718803367E0,-8.291813725E-1,-8.728232360E-1,2.098486875E0
1.587975792E1,-1.618805454E0,-9.614597163E-1,-2.860633314E-1,1.904407549E0
1.588971592E1,-1.480846248E0,-1.250155464E0,4.210451353E-1,1.983197746E0
1.589967492E1,-1.255194887E0,-1.483361135E0,1.230795625E0,2.300159198E0
1.590963292E1,-8.888750124E-1,-1.675866093E0,1.802570286E0,2.616846496E0
1.591959192E1,-4.003559321E-1,-1.925647451E0,1.813484114E0,2.675280847E0
1.592955092E1,-2.336518139E-2,-2.116635933E0,1.451712788E0,2.566741830E0
1.593950892E1,1.645029339E-1,-2.198905088E0,5.348220116E-1,2.268982015E0
1.594946792E1,-1.123229662E-1,-2.180197506E0,-6.579620343E-1,2.280085887E0
1.595942692E1,-5.606266513E-1,-1.927097560E0,-1.192657746E0,2.334617688E0
1.596938492E1,-7.885853237E-1,-1.615072007E0,-1.023862079E0,2.068482042E0
1.597934392E1,-9.683510984E-1,-1.428659848E0,-6.609365129E-1,1.848136869E0
1.598930192E1,-1.189869501E0,-1.310261625E0,-2.963392282E-1,1.794545038E0
1.599926092E1,-1.299957954E0,-1.314280124E0,-9.564232171E-2,1.851045753E0
1.600921992E1,-1.217018562E0,-1.512182061E0,-1.903204376E-1,1.950397559E0
1.601917792E1,-1.096851264E0,-1.647499203E0,-4.145284134E-1,2.022169658E0
1.602913692E1,-1.012538653E0,-1.585458783E0,-5.206670719E-1,1.951924250E0
1.603909592E1,-8.521610762E-1,-1.528644605E0,-5.902635562E-1,1.846982375E0
1.604905392E1,-6.790275058E-1,-1.431086735E0,-6.286189520E-1,1.704185842E0
1.605901292E1,-6.839659180E-1,-1.230191316E0,-6.573474920E-1,1.553475386E0
1.606897092E1,-8.890086213E-1,-1.030228235E0,-6.407320440E-1,1.504075828E0
1.607892992E1,-1.183151489E0,-9.063336289E-1,-3.568047005E-1,1.532513519E0
1.608888892E1,-1.376654128E0,-8.444472831E-1,1.513797355E-1,1.622092360E0
1.609884692E1,-1.308475593E0,-8.667123109E-1,5.185755229E-1,1.652942582E0
1.610880592E1,-1.050724334E0,-9.411078975E-1,4.631146824E-1,1.484648413E0
1.611876492E1,-7.998952275E-1,-9.479582030E-1,1.975423336E-1,1.255977748E0
1.612872292E1,-7.311937326E-1,-8.958255976E-1,-4.718118310E-2,1.157313199E0
1.613868192E1,-8.339812788E-1,-7.575360239E-1,-1.768285722E-1,1.140462163E0
1.614863992E1,-9.960582029E-1,-6.784924856E-1,-2.439487606E-1,1.229632057E0
1.615859892E1,-1.063973759E0,-6.924854574E-1,-3.991531599E-1,1.330751484E0
1.616855792E1,-9.232285007E-1,-6.929669756E-1,-5.388250154E-1,1.273925622E0
1.617851592E1,-7.516962634E-1,-6.347947812E-1,-6.183845705E-1,1.162071927E0
